"session","task","run","subj","name","word","trial.type","pc","color","iti","time.target.onset.abs","time.scan.start","trial.num","listener1","listener2","correctcolor","response.final","acc.final","rt","item","time.target.onset","time.rt.abs","time.rt","acc","time.block1.on","time.block2.on","time.block3.on","time.block1.off","time.block2.off","time.block3.off"
"bas","stp",1,"197449","bas_stp_run1_197449","BLUE","c","mc","blue",1200,99004,68285,1,"blue","blue","blue","blue","1",764,"blueBLUE",30.719,99768,794.719,1,28.439,231.226,434.026,202.839,405.639,608.439
"bas","stp",1,"197449","bas_stp_run1_197449","WHITE","i","mc","blue",1200,102604,68285,2,"blue","blue","blue","blue","1",1010,"blueWHITE",34.319,103614,1044.319,1,28.439,231.226,434.026,202.839,405.639,608.439
"bas","stp",1,"197449","bas_stp_run1_197449","BLACK","i","pc50","green",3600,106204,68285,3,"green","green","green","green","1",845,"greenBLACK",37.919,107049,882.919,1,28.439,231.226,434.026,202.839,405.639,608.439
"bas","stp",1,"197449","bas_stp_run1_197449","BLUE","c","mc","blue",3600,112217,68285,4,"blue","blue","blue","blue","1",818,"blueBLUE",43.932,113035,861.932,1,28.439,231.226,434.026,202.839,405.639,608.439
"bas","stp",1,"197449","bas_stp_run1_197449","WHITE","c","mc","white",2400,118217,68285,5,"white","white","white","white","1",713.5,"whiteWHITE",49.932,118930.5,763.432,1,28.439,231.226,434.026,202.839,405.639,608.439
"bas","stp",1,"197449","bas_stp_run1_197449","YELLOW","i","pc50","black",1200,123017,68285,6,"black","black","black","black","1",674,"blackYELLOW",54.732,123691,728.732,1,28.439,231.226,434.026,202.839,405.639,608.439
"bas","stp",1,"197449","bas_stp_run1_197449","RED","i","mc","white",2400,126617,68285,7,"white","white","white","white","1",871,"whiteRED",58.332,127488,929.332,1,28.439,231.226,434.026,202.839,405.639,608.439
"bas","stp",1,"197449","bas_stp_run1_197449","PURPLE","c","mc","purple",3600,131417,68285,8,"purple","purple","purple","purple","1",908.5,"purplePURPLE",63.132,132325.5,971.632,1,28.439,231.226,434.026,202.839,405.639,608.439
"bas","stp",1,"197449","bas_stp_run1_197449","YELLOW","c","pc50","yellow",2400,137404,68285,9,"yellow","yellow","yellow","yellow","1",895,"yellowYELLOW",69.119,138299,964.119,1,28.439,231.226,434.026,202.839,405.639,608.439
"bas","stp",1,"197449","bas_stp_run1_197449","RED","c","mc","red",2400,142204,68285,10,"red","red","red","red","1",1281.5,"redRED",73.919,143485.5,1355.419,1,28.439,231.226,434.026,202.839,405.639,608.439
"bas","stp",1,"197449","bas_stp_run1_197449","RED","c","mc","red",1200,147004,68285,11,"red","red","red","red","1",1001.5,"redRED",78.719,148005.5,1080.219,1,28.439,231.226,434.026,202.839,405.639,608.439
"bas","stp",1,"197449","bas_stp_run1_197449","RED","c","mc","red",3600,150604,68285,12,"red","red","red","red","1",1296,"redRED",82.319,151900,1378.319,1,28.439,231.226,434.026,202.839,405.639,608.439
"bas","stp",1,"197449","bas_stp_run1_197449","BLUE","i","mc","red",1200,156617,68285,13,"red","red","red","red","1",1113,"redBLUE",88.332,157730,1201.332,1,28.439,231.226,434.026,202.839,405.639,608.439
"bas","stp",1,"197449","bas_stp_run1_197449","BLUE","i","mc","purple",1200,160217,68285,14,"purple","purple","purple","purple","1",1336.5,"purpleBLUE",91.932,161553.5,1428.432,1,28.439,231.226,434.026,202.839,405.639,608.439
"bas","stp",1,"197449","bas_stp_run1_197449","BLUE","c","mc","blue",3600,163817,68285,15,"blue","blue","blue","blue","1",959.5,"blueBLUE",95.532,164776.5,1055.032,1,28.439,231.226,434.026,202.839,405.639,608.439
"bas","stp",1,"197449","bas_stp_run1_197449","PINK","i","pc50","black",2400,169817,68285,16,"black","black","black","black","1",740,"blackPINK",101.532,170557,841.532,1,28.439,231.226,434.026,202.839,405.639,608.439
"bas","stp",1,"197449","bas_stp_run1_197449","PURPLE","c","mc","purple",2400,174617,68285,17,"purple","purple","purple","purple","1",983.5,"purplePURPLE",106.332,175600.5,1089.832,1,28.439,231.226,434.026,202.839,405.639,608.439
"bas","stp",1,"197449","bas_stp_run1_197449","YELLOW","c","pc50","yellow",1200,179404,68285,18,"yellow","yellow","yellow","yellow","1",817,"yellowYELLOW",111.119,180221,928.119,1,28.439,231.226,434.026,202.839,405.639,608.439
"bas","stp",1,"197449","bas_stp_run1_197449","PURPLE","i","mc","red",3600,183004,68285,19,"red","red","red","red","1",1059.5,"redPURPLE",114.719,184063.5,1174.219,1,28.439,231.226,434.026,202.839,405.639,608.439
"bas","stp",1,"197449","bas_stp_run1_197449","BLUE","c","mc","blue",2400,189004,68285,20,"blue","blue","blue","blue","1",905,"blueBLUE",120.719,189909,1025.719,1,28.439,231.226,434.026,202.839,405.639,608.439
"bas","stp",1,"197449","bas_stp_run1_197449","WHITE","c","mc","white",3600,193817,68285,21,"white","white","white","white","1",702,"whiteWHITE",125.532,194519,827.532,1,28.439,231.226,434.026,202.839,405.639,608.439
"bas","stp",1,"197449","bas_stp_run1_197449","PURPLE","i","mc","white",3600,199817,68285,22,"white","white","white","white","1",949.5,"whitePURPLE",131.532,200766.5,1081.032,1,28.439,231.226,434.026,202.839,405.639,608.439
"bas","stp",1,"197449","bas_stp_run1_197449","GREEN","c","pc50","green",1200,205817,68285,23,"green","green","green","green","1",752.5,"greenGREEN",137.532,206569.5,890.032,1,28.439,231.226,434.026,202.839,405.639,608.439
"bas","stp",1,"197449","bas_stp_run1_197449","BLACK","c","pc50","black",2400,209417,68285,24,"black","black","black","black","1",924,"blackBLACK",141.132,210341,1065.132,1,28.439,231.226,434.026,202.839,405.639,608.439
"bas","stp",1,"197449","bas_stp_run1_197449","GREEN","i","pc50","yellow",1200,214217,68285,25,"yellow","yellow","yellow","yellow","1",1038,"yellowGREEN",145.932,215255,1183.932,1,28.439,231.226,434.026,202.839,405.639,608.439
"bas","stp",1,"197449","bas_stp_run1_197449","PURPLE","c","mc","purple",1200,217817,68285,26,"purple","purple","purple","purple","1",882,"purplePURPLE",149.532,218699,1031.532,1,28.439,231.226,434.026,202.839,405.639,608.439
"bas","stp",1,"197449","bas_stp_run1_197449","WHITE","c","mc","white",3600,221404,68285,27,"white","white","white","white","1",1216,"whiteWHITE",153.119,222620,1369.119,1,28.439,231.226,434.026,202.839,405.639,608.439
"bas","stp",1,"197449","bas_stp_run1_197449","RED","c","mc","red",2400,227404,68285,28,"red","red","red","red","1",926,"redRED",159.119,228330,1085.119,1,28.439,231.226,434.026,202.839,405.639,608.439
"bas","stp",1,"197449","bas_stp_run1_197449","PINK","c","pc50","pink",2400,232204,68285,29,"pink","pink","pink","pink","1",1367,"pinkPINK",163.919,233571,1530.919,1,28.439,231.226,434.026,202.839,405.639,608.439
"bas","stp",1,"197449","bas_stp_run1_197449","WHITE","c","mc","white",1200,237017,68285,30,"white","white","white","white","1",862.5,"whiteWHITE",168.732,237879.5,1031.232,1,28.439,231.226,434.026,202.839,405.639,608.439
"bas","stp",1,"197449","bas_stp_run1_197449","PURPLE","c","mc","purple",3600,240617,68285,31,"purple","purple","purple","purple","1",853.5,"purplePURPLE",172.332,241470.5,1025.832,1,28.439,231.226,434.026,202.839,405.639,608.439
"bas","stp",1,"197449","bas_stp_run1_197449","BLUE","c","mc","blue",2400,246617,68285,32,"blue","blue","blue","blue","1",827.5,"blueBLUE",178.332,247444.5,1005.832,1,28.439,231.226,434.026,202.839,405.639,608.439
"bas","stp",1,"197449","bas_stp_run1_197449","GREEN","c","pc50","green",3600,251417,68285,33,"green","green","green","green","1",884,"greenGREEN",183.132,252301,1067.132,1,28.439,231.226,434.026,202.839,405.639,608.439
"bas","stp",1,"197449","bas_stp_run1_197449","GREEN","i","pc50","pink",3600,257417,68285,34,"pink","pink","pink","pink","1",826.5,"pinkGREEN",189.132,258243.5,1015.632,1,28.439,231.226,434.026,202.839,405.639,608.439
"bas","stp",1,"197449","bas_stp_run1_197449","PURPLE","c","mc","purple",2400,263404,68285,35,"purple","purple","purple","purple","1",770.5,"purplePURPLE",195.119,264174.5,965.619,1,28.439,231.226,434.026,202.839,405.639,608.439
"bas","stp",1,"197449","bas_stp_run1_197449","YELLOW","i","pc50","pink",1200,268204,68285,36,"pink","pink","pink","pink","1",868,"pinkYELLOW",199.919,269072,1067.919,1,28.439,231.226,434.026,202.839,405.639,608.439
"bas","stp",1,"197449","bas_stp_run1_197449","YELLOW","c","pc50","yellow",3600,301804,68285,37,"yellow","yellow","yellow","yellow","1",757,"yellowYELLOW",233.519,302561,990.519,1,28.439,231.226,434.026,202.839,405.639,608.439
"bas","stp",1,"197449","bas_stp_run1_197449","BLUE","c","mc","blue",1200,307804,68285,38,"blue","blue","blue","blue","1",575,"blueBLUE",239.519,308379,814.519,1,28.439,231.226,434.026,202.839,405.639,608.439
"bas","stp",1,"197449","bas_stp_run1_197449","PURPLE","c","mc","purple",1200,311404,68285,39,"purple","purple","purple","purple","1",1332,"purplePURPLE",243.119,312736,1575.119,1,28.439,231.226,434.026,202.839,405.639,608.439
"bas","stp",1,"197449","bas_stp_run1_197449","RED","i","mc","white",3600,315017,68285,40,"white","white","white","white","1",736,"whiteRED",246.732,315753,982.732,1,28.439,231.226,434.026,202.839,405.639,608.439
"bas","stp",1,"197449","bas_stp_run1_197449","PURPLE","i","mc","white",2400,321017,68285,41,"white","white","white","white","1",1081.5,"whitePURPLE",252.732,322098.5,1334.232,1,28.439,231.226,434.026,202.839,405.639,608.439
"bas","stp",1,"197449","bas_stp_run1_197449","BLUE","c","mc","blue",3600,325817,68285,42,"blue","blue","blue","blue","1",923,"blueBLUE",257.532,326740,1180.532,1,28.439,231.226,434.026,202.839,405.639,608.439
"bas","stp",1,"197449","bas_stp_run1_197449","BLUE","c","mc","blue",3600,331817,68285,43,"blue","blue","blue","blue","1",751.5,"blueBLUE",263.532,332568.5,1015.032,1,28.439,231.226,434.026,202.839,405.639,608.439
"bas","stp",1,"197449","bas_stp_run1_197449","YELLOW","i","pc50","black",2400,337817,68285,44,"black","black","black","black","1",768,"blackYELLOW",269.532,338585,1037.532,1,28.439,231.226,434.026,202.839,405.639,608.439
"bas","stp",1,"197449","bas_stp_run1_197449","GREEN","i","pc50","yellow",1200,342604,68285,45,"yellow","yellow","yellow","yellow","1",890,"yellowGREEN",274.319,343494,1164.319,1,28.439,231.226,434.026,202.839,405.639,608.439
"bas","stp",1,"197449","bas_stp_run1_197449","BLUE","c","mc","blue",1200,346204,68285,46,"blue","blue","blue","blue","1",964,"blueBLUE",277.919,347168,1241.919,1,28.439,231.226,434.026,202.839,405.639,608.439
"bas","stp",1,"197449","bas_stp_run1_197449","RED","c","mc","red",2400,349804,68285,47,"red","red","red","red","1",948,"redRED",281.519,350752,1229.519,1,28.439,231.226,434.026,202.839,405.639,608.439
"bas","stp",1,"197449","bas_stp_run1_197449","PURPLE","c","mc","purple",2400,354617,68285,48,"purple","purple","purple","purple","1",1152.5,"purplePURPLE",286.332,355769.5,1438.832,1,28.439,231.226,434.026,202.839,405.639,608.439
"bas","stp",1,"197449","bas_stp_run1_197449","YELLOW","c","pc50","yellow",2400,359417,68285,49,"yellow","yellow","yellow","yellow","1",1021.5,"yellowYELLOW",291.132,360438.5,1312.632,1,28.439,231.226,434.026,202.839,405.639,608.439
"bas","stp",1,"197449","bas_stp_run1_197449","YELLOW","i","pc50","pink",2400,364217,68285,50,"pink","pink","pink","pink","1",821.5,"pinkYELLOW",295.932,365038.5,1117.432,1,28.439,231.226,434.026,202.839,405.639,608.439
"bas","stp",1,"197449","bas_stp_run1_197449","WHITE","c","mc","white",1200,369017,68285,51,"white","white","white","white","1",1241.5,"whiteWHITE",300.732,370258.5,1542.232,1,28.439,231.226,434.026,202.839,405.639,608.439
"bas","stp",1,"197449","bas_stp_run1_197449","WHITE","c","mc","white",2400,372617,68285,52,"white","white","white","white","1",798.5,"whiteWHITE",304.332,373415.5,1102.832,1,28.439,231.226,434.026,202.839,405.639,608.439
"bas","stp",1,"197449","bas_stp_run1_197449","PINK","i","pc50","black",2400,377417,68285,53,"black","black","black","black","1",1327,"blackPINK",309.132,378744,1636.132,1,28.439,231.226,434.026,202.839,405.639,608.439
"bas","stp",1,"197449","bas_stp_run1_197449","BLUE","i","mc","purple",1200,382204,68285,54,"purple","purple","purple","purple","1",1043.5,"purpleBLUE",313.919,383247.5,1357.419,1,28.439,231.226,434.026,202.839,405.639,608.439
"bas","stp",1,"197449","bas_stp_run1_197449","BLUE","c","mc","blue",1200,385804,68285,55,"blue","blue","blue","blue","1",893.5,"blueBLUE",317.519,386697.5,1211.019,1,28.439,231.226,434.026,202.839,405.639,608.439
"bas","stp",1,"197449","bas_stp_run1_197449","PURPLE","c","mc","purple",3600,389404,68285,56,"purple","purple","purple","purple","1",803,"purplePURPLE",321.119,390207,1124.119,1,28.439,231.226,434.026,202.839,405.639,608.439
"bas","stp",1,"197449","bas_stp_run1_197449","PURPLE","i","mc","red",3600,395417,68285,57,"red","red","red","red","1",1055.5,"redPURPLE",327.132,396472.5,1382.632,1,28.439,231.226,434.026,202.839,405.639,608.439
"bas","stp",1,"197449","bas_stp_run1_197449","RED","c","mc","red",3600,401417,68285,58,"red","red","red","red","1",1011,"redRED",333.132,402428,1344.132,1,28.439,231.226,434.026,202.839,405.639,608.439
"bas","stp",1,"197449","bas_stp_run1_197449","WHITE","c","mc","white",1200,407417,68285,59,"white","white","white","white","1",874.5,"whiteWHITE",339.132,408291.5,1213.632,1,28.439,231.226,434.026,202.839,405.639,608.439
"bas","stp",1,"197449","bas_stp_run1_197449","BLUE","i","mc","red",3600,411017,68285,60,"red","red","red","red","1",1524,"redBLUE",342.732,412541,1866.732,1,28.439,231.226,434.026,202.839,405.639,608.439
"bas","stp",1,"197449","bas_stp_run1_197449","PURPLE","c","mc","purple",3600,417017,68285,61,"purple","purple","purple","purple","1",1057.5,"purplePURPLE",348.732,418074.5,1406.232,1,28.439,231.226,434.026,202.839,405.639,608.439
"bas","stp",1,"197449","bas_stp_run1_197449","PINK","c","pc50","pink",1200,423004,68285,62,"pink","pink","pink","pink","1",1051.5,"pinkPINK",354.719,424055.5,1406.219,1,28.439,231.226,434.026,202.839,405.639,608.439
"bas","stp",1,"197449","bas_stp_run1_197449","WHITE","c","mc","white",1200,426604,68285,63,"white","white","white","white","1",706,"whiteWHITE",358.319,427310,1064.319,1,28.439,231.226,434.026,202.839,405.639,608.439
"bas","stp",1,"197449","bas_stp_run1_197449","BLACK","i","pc50","green",3600,430204,68285,64,"green","green","green","green","1",1092.5,"greenBLACK",361.919,431296.5,1454.419,1,28.439,231.226,434.026,202.839,405.639,608.439
"bas","stp",1,"197449","bas_stp_run1_197449","GREEN","i","pc50","pink",1200,436217,68285,65,"pink","pink","pink","pink","1",823.5,"pinkGREEN",367.932,437040.5,1191.432,1,28.439,231.226,434.026,202.839,405.639,608.439
"bas","stp",1,"197449","bas_stp_run1_197449","PURPLE","c","mc","purple",2400,439817,68285,66,"purple","purple","purple","purple","1",770.5,"purplePURPLE",371.532,440587.5,1142.032,1,28.439,231.226,434.026,202.839,405.639,608.439
"bas","stp",1,"197449","bas_stp_run1_197449","BLACK","c","pc50","black",2400,444617,68285,67,"black","black","black","black","1",748.5,"blackBLACK",376.332,445365.5,1124.832,1,28.439,231.226,434.026,202.839,405.639,608.439
"bas","stp",1,"197449","bas_stp_run1_197449","WHITE","i","mc","blue",3600,449417,68285,68,"blue","blue","blue","blue","1",984,"blueWHITE",381.132,450401,1365.132,1,28.439,231.226,434.026,202.839,405.639,608.439
"bas","stp",1,"197449","bas_stp_run1_197449","RED","c","mc","red",3600,455417,68285,69,"red","red","red","red","1",1277.5,"redRED",387.132,456694.5,1664.632,1,28.439,231.226,434.026,202.839,405.639,608.439
"bas","stp",1,"197449","bas_stp_run1_197449","GREEN","c","pc50","green",1200,461417,68285,70,"green","green","green","green","1",904,"greenGREEN",393.132,462321,1297.132,1,28.439,231.226,434.026,202.839,405.639,608.439
"bas","stp",1,"197449","bas_stp_run1_197449","RED","c","mc","red",2400,465004,68285,71,"red","red","red","red","1",664,"redRED",396.719,465668,1060.719,1,28.439,231.226,434.026,202.839,405.639,608.439
"bas","stp",1,"197449","bas_stp_run1_197449","GREEN","c","pc50","green",2400,469804,68285,72,"green","green","green","green","1",641,"greenGREEN",401.519,470445,1042.519,1,28.439,231.226,434.026,202.839,405.639,608.439
"bas","stp",1,"197449","bas_stp_run1_197449","PURPLE","i","mc","red",3600,504604,68285,73,"red","red","red","red","1",1110,"redPURPLE",436.319,505714,1546.319,1,28.439,231.226,434.026,202.839,405.639,608.439
"bas","stp",1,"197449","bas_stp_run1_197449","RED","c","mc","red",3600,510604,68285,74,"red","red","red","red","1",778.5,"redRED",442.319,511382.5,1220.819,1,28.439,231.226,434.026,202.839,405.639,608.439
"bas","stp",1,"197449","bas_stp_run1_197449","WHITE","c","mc","white",1200,516617,68285,75,"white","white","white","white","1",1009,"whiteWHITE",448.332,517626,1457.332,1,28.439,231.226,434.026,202.839,405.639,608.439
"bas","stp",1,"197449","bas_stp_run1_197449","PURPLE","c","mc","purple",1200,520217,68285,76,"purple","purple","purple","purple","1",1230,"purplePURPLE",451.932,521447,1681.932,1,28.439,231.226,434.026,202.839,405.639,608.439
"bas","stp",1,"197449","bas_stp_run1_197449","PURPLE","i","mc","white",1200,523817,68285,77,"white","white","white","white","1",819,"whitePURPLE",455.532,524636,1274.532,1,28.439,231.226,434.026,202.839,405.639,608.439
"bas","stp",1,"197449","bas_stp_run1_197449","YELLOW","c","pc50","yellow",2400,527417,68285,78,"yellow","yellow","yellow","yellow","1",1156,"yellowYELLOW",459.132,528573,1615.132,1,28.439,231.226,434.026,202.839,405.639,608.439
"bas","stp",1,"197449","bas_stp_run1_197449","WHITE","i","mc","blue",2400,532217,68285,79,"blue","blue","blue","blue","1",885.5,"blueWHITE",463.932,533102.5,1349.432,1,28.439,231.226,434.026,202.839,405.639,608.439
"bas","stp",1,"197449","bas_stp_run1_197449","GREEN","i","pc50","yellow",2400,537017,68285,80,"yellow","yellow","yellow","yellow","1",1848.5,"yellowGREEN",468.732,538865.5,2317.232,1,28.439,231.226,434.026,202.839,405.639,608.439
"bas","stp",1,"197449","bas_stp_run1_197449","BLUE","c","mc","blue",3600,541817,68285,81,"blue","blue","blue","blue","1",1044,"blueBLUE",473.532,542861,1517.532,1,28.439,231.226,434.026,202.839,405.639,608.439
"bas","stp",1,"197449","bas_stp_run1_197449","PINK","i","pc50","black",3600,547804,68285,82,"black","black","black","black","1",850,"blackPINK",479.519,548654,1329.519,1,28.439,231.226,434.026,202.839,405.639,608.439
"bas","stp",1,"197449","bas_stp_run1_197449","PURPLE","c","mc","purple",1200,553804,68285,83,"purple","purple","purple","purple","1",734.5,"purplePURPLE",485.519,554538.5,1220.019,1,28.439,231.226,434.026,202.839,405.639,608.439
"bas","stp",1,"197449","bas_stp_run1_197449","PURPLE","c","mc","purple",2400,557417,68285,84,"purple","purple","purple","purple","1",986.5,"purplePURPLE",489.132,558403.5,1475.632,1,28.439,231.226,434.026,202.839,405.639,608.439
"bas","stp",1,"197449","bas_stp_run1_197449","YELLOW","i","pc50","pink",2400,562217,68285,85,"pink","pink","pink","pink","1",841.5,"pinkYELLOW",493.932,563058.5,1335.432,1,28.439,231.226,434.026,202.839,405.639,608.439
"bas","stp",1,"197449","bas_stp_run1_197449","YELLOW","c","pc50","yellow",2400,567017,68285,86,"yellow","yellow","yellow","yellow","1",815.5,"yellowYELLOW",498.732,567832.5,1314.232,1,28.439,231.226,434.026,202.839,405.639,608.439
"bas","stp",1,"197449","bas_stp_run1_197449","BLUE","c","mc","blue",1200,571817,68285,87,"blue","blue","blue","blue","1",798.5,"blueBLUE",503.532,572615.5,1302.032,1,28.439,231.226,434.026,202.839,405.639,608.439
"bas","stp",1,"197449","bas_stp_run1_197449","BLUE","c","mc","blue",2400,575417,68285,88,"blue","blue","blue","blue","1",725,"blueBLUE",507.132,576142,1232.132,1,28.439,231.226,434.026,202.839,405.639,608.439
"bas","stp",1,"197449","bas_stp_run1_197449","GREEN","c","pc50","green",3600,580217,68285,89,"green","green","green","green","1",1157,"greenGREEN",511.932,581374,1668.932,1,28.439,231.226,434.026,202.839,405.639,608.439
"bas","stp",1,"197449","bas_stp_run1_197449","WHITE","c","mc","white",3600,586204,68285,90,"white","white","white","white","1",687.5,"whiteWHITE",517.919,586891.5,1205.419,1,28.439,231.226,434.026,202.839,405.639,608.439
"bas","stp",1,"197449","bas_stp_run1_197449","BLUE","c","mc","blue",2400,592204,68285,91,"blue","blue","blue","blue","1",869.5,"blueBLUE",523.919,593073.5,1393.419,1,28.439,231.226,434.026,202.839,405.639,608.439
"bas","stp",1,"197449","bas_stp_run1_197449","GREEN","c","pc50","green",1200,597004,68285,92,"green","green","green","green","1",1017.5,"greenGREEN",528.719,598021.5,1546.219,1,28.439,231.226,434.026,202.839,405.639,608.439
"bas","stp",1,"197449","bas_stp_run1_197449","BLACK","i","pc50","green",1200,600617,68285,93,"green","green","green","green","1",1395.5,"greenBLACK",532.332,602012.5,1927.832,1,28.439,231.226,434.026,202.839,405.639,608.439
"bas","stp",1,"197449","bas_stp_run1_197449","RED","c","mc","red",3600,604217,68285,94,"red","red","red","red","1",1208.5,"redRED",535.932,605425.5,1744.432,1,28.439,231.226,434.026,202.839,405.639,608.439
"bas","stp",1,"197449","bas_stp_run1_197449","PURPLE","c","mc","purple",1200,610217,68285,95,"purple","purple","purple","purple","1",1171,"purplePURPLE",541.932,611388,1712.932,1,28.439,231.226,434.026,202.839,405.639,608.439
"bas","stp",1,"197449","bas_stp_run1_197449","RED","i","mc","white",3600,613817,68285,96,"white","white","white","white","1",1169.5,"whiteRED",545.532,614986.5,1715.032,1,28.439,231.226,434.026,202.839,405.639,608.439
"bas","stp",1,"197449","bas_stp_run1_197449","WHITE","c","mc","white",3600,619817,68285,97,"white","white","white","white","1",1922.5,"whiteWHITE",551.532,621739.5,2474.032,1,28.439,231.226,434.026,202.839,405.639,608.439
"bas","stp",1,"197449","bas_stp_run1_197449","PURPLE","c","mc","purple",1200,625804,68285,98,"purple","purple","purple","purple","1",775.5,"purplePURPLE",557.519,626579.5,1333.019,1,28.439,231.226,434.026,202.839,405.639,608.439
"bas","stp",1,"197449","bas_stp_run1_197449","PINK","c","pc50","pink",1200,629404,68285,99,"pink","pink","pink","pink","1",831.5,"pinkPINK",561.119,630235.5,1392.619,1,28.439,231.226,434.026,202.839,405.639,608.439
"bas","stp",1,"197449","bas_stp_run1_197449","WHITE","c","mc","white",3600,633004,68285,100,"white","white","white","white","1",579,"whiteWHITE",564.719,633583,1143.719,1,28.439,231.226,434.026,202.839,405.639,608.439
"bas","stp",1,"197449","bas_stp_run1_197449","BLUE","i","mc","red",2400,639017,68285,101,"red","red","red","red","1",864,"redBLUE",570.732,639881,1434.732,1,28.439,231.226,434.026,202.839,405.639,608.439
"bas","stp",1,"197449","bas_stp_run1_197449","BLUE","i","mc","purple",2400,643817,68285,102,"purple","purple","purple","purple","1",882,"purpleBLUE",575.532,644699,1457.532,1,28.439,231.226,434.026,202.839,405.639,608.439
"bas","stp",1,"197449","bas_stp_run1_197449","YELLOW","i","pc50","black",2400,648617,68285,103,"black","black","black","black","1",802,"blackYELLOW",580.332,649419,1382.332,1,28.439,231.226,434.026,202.839,405.639,608.439
"bas","stp",1,"197449","bas_stp_run1_197449","RED","c","mc","red",3600,653417,68285,104,"red","red","red","red","1",707.5,"redRED",585.132,654124.5,1292.632,1,28.439,231.226,434.026,202.839,405.639,608.439
"bas","stp",1,"197449","bas_stp_run1_197449","RED","c","mc","red",1200,659417,68285,105,"red","red","red","red","1",819.5,"redRED",591.132,660236.5,1410.632,1,28.439,231.226,434.026,202.839,405.639,608.439
"bas","stp",1,"197449","bas_stp_run1_197449","BLACK","c","pc50","black",3600,663017,68285,106,"black","black","black","black","1",2437,"blackBLACK",594.732,665454,3031.732,1,28.439,231.226,434.026,202.839,405.639,608.439
"bas","stp",1,"197449","bas_stp_run1_197449","GREEN","i","pc50","pink",1200,669004,68285,107,"pink","pink","pink","pink","1",818,"pinkGREEN",600.719,669822,1418.719,1,28.439,231.226,434.026,202.839,405.639,608.439
"bas","stp",1,"197449","bas_stp_run1_197449","BLUE","c","mc","blue",2400,672604,68285,108,"blue","blue","blue","blue","1",765.5,"blueBLUE",604.319,673369.5,1369.819,1,28.439,231.226,434.026,202.839,405.639,608.439
"bas","stp",2,"197449","bas_stp_run2_197449","RED","i","mc","blue",2400,69508,38789,1,"blue","blue","blue","blue","1",1130,"blueRED",30.719,70638,1160.719,1,28.426,231.226,434.026,202.839,405.626,608.426
"bas","stp",2,"197449","bas_stp_run2_197449","PINK","i","pc50","green",1200,74308,38789,2,"green","green","green","green","1",818.5,"greenPINK",35.519,75126.5,854.019,1,28.426,231.226,434.026,202.839,405.626,608.426
"bas","stp",2,"197449","bas_stp_run2_197449","BLUE","c","mc","blue",3600,77908,38789,3,"blue","blue","blue","blue","1",962.5,"blueBLUE",39.119,78870.5,1001.619,1,28.426,231.226,434.026,202.839,405.626,608.426
"bas","stp",2,"197449","bas_stp_run2_197449","BLACK","i","pc50","yellow",2400,83908,38789,4,"yellow","yellow","yellow","yellow","1",828,"yellowBLACK",45.119,84736,873.119,1,28.426,231.226,434.026,202.839,405.626,608.426
"bas","stp",2,"197449","bas_stp_run2_197449","PINK","i","pc50","yellow",3600,88708,38789,5,"yellow","yellow","yellow","yellow","1",999,"yellowPINK",49.919,89707,1048.919,1,28.426,231.226,434.026,202.839,405.626,608.426
"bas","stp",2,"197449","bas_stp_run2_197449","PINK","c","pc50","pink",3600,94695,38789,6,"pink","pink","pink","pink","1",841.5,"pinkPINK",55.906,95536.5,897.406,1,28.426,231.226,434.026,202.839,405.626,608.426
"bas","stp",2,"197449","bas_stp_run2_197449","WHITE","c","mc","white",1200,100695,38789,7,"white","white","white","white","1",722.5,"whiteWHITE",61.906,101417.5,784.406,1,28.426,231.226,434.026,202.839,405.626,608.426
"bas","stp",2,"197449","bas_stp_run2_197449","RED","c","mc","red",2400,104295,38789,8,"red","red","red","red","1",1154.5,"redRED",65.506,105449.5,1220.006,1,28.426,231.226,434.026,202.839,405.626,608.426
"bas","stp",2,"197449","bas_stp_run2_197449","YELLOW","c","pc50","yellow",1200,109108,38789,9,"yellow","yellow","yellow","yellow","1",820.5,"yellowYELLOW",70.319,109928.5,890.819,1,28.426,231.226,434.026,202.839,405.626,608.426
"bas","stp",2,"197449","bas_stp_run2_197449","BLUE","c","mc","blue",1200,112708,38789,10,"blue","blue","blue","blue","1",1101.5,"blueBLUE",73.919,113809.5,1175.419,1,28.426,231.226,434.026,202.839,405.626,608.426
"bas","stp",2,"197449","bas_stp_run2_197449","RED","c","mc","red",3600,116308,38789,11,"red","red","red","red","1",887.5,"redRED",77.519,117195.5,965.019,1,28.426,231.226,434.026,202.839,405.626,608.426
"bas","stp",2,"197449","bas_stp_run2_197449","GREEN","i","pc50","black",2400,122308,38789,12,"black","black","black","black","1",1013.5,"blackGREEN",83.519,123321.5,1097.019,1,28.426,231.226,434.026,202.839,405.626,608.426
"bas","stp",2,"197449","bas_stp_run2_197449","BLACK","c","pc50","black",1200,127108,38789,13,"black","black","black","black","1",945,"blackBLACK",88.319,128053,1033.319,1,28.426,231.226,434.026,202.839,405.626,608.426
"bas","stp",2,"197449","bas_stp_run2_197449","BLUE","c","mc","blue",2400,130708,38789,14,"blue","blue","blue","blue","1",1075,"blueBLUE",91.919,131783,1166.919,1,28.426,231.226,434.026,202.839,405.626,608.426
"bas","stp",2,"197449","bas_stp_run2_197449","BLUE","c","mc","blue",3600,135495,38789,15,"blue","blue","blue","blue","1",925.5,"blueBLUE",96.706,136420.5,1022.206,1,28.426,231.226,434.026,202.839,405.626,608.426
"bas","stp",2,"197449","bas_stp_run2_197449","GREEN","c","pc50","green",2400,141495,38789,16,"green","green","green","green","1",827.5,"greenGREEN",102.706,142322.5,930.206,1,28.426,231.226,434.026,202.839,405.626,608.426
"bas","stp",2,"197449","bas_stp_run2_197449","RED","c","mc","red",3600,146295,38789,17,"red","red","red","red","1",913.5,"redRED",107.506,147208.5,1021.006,1,28.426,231.226,434.026,202.839,405.626,608.426
"bas","stp",2,"197449","bas_stp_run2_197449","RED","c","mc","red",1200,152308,38789,18,"red","red","red","red","1",840.5,"redRED",113.519,153148.5,954.019,1,28.426,231.226,434.026,202.839,405.626,608.426
"bas","stp",2,"197449","bas_stp_run2_197449","YELLOW","i","pc50","green",1200,155908,38789,19,"green","green","green","green","1",1043.5,"greenYELLOW",117.119,156951.5,1160.619,1,28.426,231.226,434.026,202.839,405.626,608.426
"bas","stp",2,"197449","bas_stp_run2_197449","PINK","c","pc50","pink",2400,159508,38789,20,"pink","pink","pink","pink","1",879,"pinkPINK",120.719,160387,999.719,1,28.426,231.226,434.026,202.839,405.626,608.426
"bas","stp",2,"197449","bas_stp_run2_197449","PURPLE","c","mc","purple",3600,164308,38789,21,"purple","purple","purple","purple","1",2133,"purplePURPLE",125.519,166441,2258.519,1,28.426,231.226,434.026,202.839,405.626,608.426
"bas","stp",2,"197449","bas_stp_run2_197449","BLACK","c","pc50","black",3600,170308,38789,22,"black","black","black","black","1",794,"blackBLACK",131.519,171102,925.519,1,28.426,231.226,434.026,202.839,405.626,608.426
"bas","stp",2,"197449","bas_stp_run2_197449","WHITE","i","mc","purple",2400,176295,38789,23,"white- """"w- purple""""","white (""""whi - purple"""")","purple","white","0",1460,"purpleWHITE",137.506,177755,1597.506,0,28.426,231.226,434.026,202.839,405.626,608.426
"bas","stp",2,"197449","bas_stp_run2_197449","RED","i","mc","purple",1200,181095,38789,24,"purple","purple","purple","purple","1",994.5,"purpleRED",142.306,182089.5,1136.806,1,28.426,231.226,434.026,202.839,405.626,608.426
"bas","stp",2,"197449","bas_stp_run2_197449","WHITE","c","mc","white",3600,184695,38789,25,"white","white","white","white","1",981.5,"whiteWHITE",145.906,185676.5,1127.406,1,28.426,231.226,434.026,202.839,405.626,608.426
"bas","stp",2,"197449","bas_stp_run2_197449","PURPLE","i","mc","blue",3600,190708,38789,26,"blue","blue","blue","blue","1",1225.5,"bluePURPLE",151.919,191933.5,1377.419,1,28.426,231.226,434.026,202.839,405.626,608.426
"bas","stp",2,"197449","bas_stp_run2_197449","WHITE","i","mc","red",1200,196708,38789,27,"no-response","no-response","red","","no.response",0,"redWHITE",157.919,197106,555.919,0,28.426,231.226,434.026,202.839,405.626,608.426
"bas","stp",2,"197449","bas_stp_run2_197449","PURPLE","c","mc","purple",3600,200308,38789,28,"purple","purple","purple","purple","1",961,"purplePURPLE",161.519,201269,1122.519,1,28.426,231.226,434.026,202.839,405.626,608.426
"bas","stp",2,"197449","bas_stp_run2_197449","RED","c","mc","red",1200,206308,38789,29,"red","red","red","red","1",1581,"redRED",167.519,207889,1748.519,1,28.426,231.226,434.026,202.839,405.626,608.426
"bas","stp",2,"197449","bas_stp_run2_197449","BLUE","i","mc","white",2400,209908,38789,30,"white","white","white","white","1",2172,"whiteBLUE",171.119,212080,2343.119,1,28.426,231.226,434.026,202.839,405.626,608.426
"bas","stp",2,"197449","bas_stp_run2_197449","WHITE","c","mc","white",2400,214708,38789,31,"no-response","no-response","white","","no.response",0,"whiteWHITE",175.919,215107,574.919,0,28.426,231.226,434.026,202.839,405.626,608.426
"bas","stp",2,"197449","bas_stp_run2_197449","WHITE","c","mc","white",1200,219495,38789,32,"no-response","no-response","white","","no.response",0,"whiteWHITE",180.706,219905,590.706,0,28.426,231.226,434.026,202.839,405.626,608.426
"bas","stp",2,"197449","bas_stp_run2_197449","WHITE","c","mc","white",2400,223095,38789,33,"white","white","white","white","1",646.5,"whiteWHITE",184.306,223741.5,830.806,1,28.426,231.226,434.026,202.839,405.626,608.426
"bas","stp",2,"197449","bas_stp_run2_197449","PURPLE","c","mc","purple",3600,227895,38789,34,"purple","purple","purple","purple","1",1057.5,"purplePURPLE",189.106,228952.5,1246.606,1,28.426,231.226,434.026,202.839,405.626,608.426
"bas","stp",2,"197449","bas_stp_run2_197449","BLACK","i","pc50","pink",2400,233908,38789,35,"pink","pink","pink","pink","1",1135.5,"pinkBLACK",195.119,235043.5,1330.619,1,28.426,231.226,434.026,202.839,405.626,608.426
"bas","stp",2,"197449","bas_stp_run2_197449","PURPLE","c","mc","purple",1200,238708,38789,36,"purple","purple","purple","purple","1",1861.5,"purplePURPLE",199.919,240569.5,2061.419,1,28.426,231.226,434.026,202.839,405.626,608.426
"bas","stp",2,"197449","bas_stp_run2_197449","BLACK","i","pc50","pink",2400,272308,38789,37,"no-response","no-response","pink","","no.response",0,"pinkBLACK",233.519,272712,637.519,0,28.426,231.226,434.026,202.839,405.626,608.426
"bas","stp",2,"197449","bas_stp_run2_197449","PURPLE","c","mc","purple",1200,277108,38789,38,"purple","purple","purple","purple","1",619,"purplePURPLE",238.319,277727,857.319,1,28.426,231.226,434.026,202.839,405.626,608.426
"bas","stp",2,"197449","bas_stp_run2_197449","YELLOW","i","pc50","green",3600,280708,38789,39,"green","green","green","green","1",846.5,"greenYELLOW",241.919,281554.5,1088.419,1,28.426,231.226,434.026,202.839,405.626,608.426
"bas","stp",2,"197449","bas_stp_run2_197449","RED","i","mc","blue",1200,286708,38789,40,"blue","blue","blue","blue","1",904.5,"blueRED",247.919,287612.5,1152.419,1,28.426,231.226,434.026,202.839,405.626,608.426
"bas","stp",2,"197449","bas_stp_run2_197449","PURPLE","c","mc","purple",3600,290308,38789,41,"no-response","no-response","purple","","no.response",0,"purplePURPLE",251.519,290706.5,650.019,0,28.426,231.226,434.026,202.839,405.626,608.426
"bas","stp",2,"197449","bas_stp_run2_197449","PINK","i","pc50","yellow",3600,296308,38789,42,"yellow","yellow","yellow","yellow","1",1303,"yellowPINK",257.519,297611,1560.519,1,28.426,231.226,434.026,202.839,405.626,608.426
"bas","stp",2,"197449","bas_stp_run2_197449","BLUE","c","mc","blue",1200,302295,38789,43,"blue","blue","blue","blue","1",1022.5,"blueBLUE",263.506,303317.5,1286.006,1,28.426,231.226,434.026,202.839,405.626,608.426
"bas","stp",2,"197449","bas_stp_run2_197449","BLUE","c","mc","blue",3600,305895,38789,44,"no-response","no-response","blue","","no.response",0,"blueBLUE",267.106,306304,676.106,0,28.426,231.226,434.026,202.839,405.626,608.426
"bas","stp",2,"197449","bas_stp_run2_197449","RED","c","mc","red",2400,311908,38789,45,"red","red","red","red","1",738.5,"redRED",273.119,312646.5,1011.619,1,28.426,231.226,434.026,202.839,405.626,608.426
"bas","stp",2,"197449","bas_stp_run2_197449","WHITE","c","mc","white",2400,316708,38789,46,"white","white","white","white","1",1286.5,"whiteWHITE",277.919,317994.5,1564.419,1,28.426,231.226,434.026,202.839,405.626,608.426
"bas","stp",2,"197449","bas_stp_run2_197449","PURPLE","c","mc","purple",1200,321508,38789,47,"purple","purple","purple","purple","1",1189.5,"purplePURPLE",282.719,322697.5,1472.219,1,28.426,231.226,434.026,202.839,405.626,608.426
"bas","stp",2,"197449","bas_stp_run2_197449","WHITE","c","mc","white",2400,325108,38789,48,"white","white","white","white","1",868.5,"whiteWHITE",286.319,325976.5,1154.819,1,28.426,231.226,434.026,202.839,405.626,608.426
"bas","stp",2,"197449","bas_stp_run2_197449","WHITE","i","mc","purple",3600,329908,38789,49,"purple","purple","purple","purple","1",1373.5,"purpleWHITE",291.119,331281.5,1664.619,1,28.426,231.226,434.026,202.839,405.626,608.426
"bas","stp",2,"197449","bas_stp_run2_197449","BLACK","i","pc50","yellow",3600,335908,38789,50,"yellow","yellow","yellow","yellow","1",1340.5,"yellowBLACK",297.119,337248.5,1637.619,1,28.426,231.226,434.026,202.839,405.626,608.426
"bas","stp",2,"197449","bas_stp_run2_197449","WHITE","c","mc","white",1200,341895,38789,51,"white","white","white","white","1",825,"whiteWHITE",303.106,342720,1128.106,1,28.426,231.226,434.026,202.839,405.626,608.426
"bas","stp",2,"197449","bas_stp_run2_197449","BLUE","c","mc","blue",2400,345495,38789,52,"no-response","no-response","blue","","no.response",0,"blueBLUE",306.706,345924,735.706,0,28.426,231.226,434.026,202.839,405.626,608.426
"bas","stp",2,"197449","bas_stp_run2_197449","BLACK","c","pc50","black",3600,350295,38789,53,"black","black","black","black","1",759,"blackBLACK",311.506,351054,1070.506,1,28.426,231.226,434.026,202.839,405.626,608.426
"bas","stp",2,"197449","bas_stp_run2_197449","PURPLE","i","mc","blue",1200,356308,38789,54,"blue","blue","blue","blue","1",1057,"bluePURPLE",317.519,357365,1374.519,1,28.426,231.226,434.026,202.839,405.626,608.426
"bas","stp",2,"197449","bas_stp_run2_197449","RED","c","mc","red",2400,359908,38789,55,"red","red","red","red","1",964,"redRED",321.119,360872,1285.119,1,28.426,231.226,434.026,202.839,405.626,608.426
"bas","stp",2,"197449","bas_stp_run2_197449","PURPLE","c","mc","purple",1200,364708,38789,56,"no-response","no-response","purple","","no.response",0,"purplePURPLE",325.919,365109.5,727.419,0,28.426,231.226,434.026,202.839,405.626,608.426
"bas","stp",2,"197449","bas_stp_run2_197449","BLUE","i","mc","white",1200,368308,38789,57,"no-response","no-response","white","","no.response",0,"whiteBLUE",329.519,368708,729.519,0,28.426,231.226,434.026,202.839,405.626,608.426
"bas","stp",2,"197449","bas_stp_run2_197449","WHITE","c","mc","white",2400,371908,38789,58,"white","white","white","white","1",861,"whiteWHITE",333.119,372769,1194.119,1,28.426,231.226,434.026,202.839,405.626,608.426
"bas","stp",2,"197449","bas_stp_run2_197449","RED","i","mc","purple",3600,376708,38789,59,"purple","purple","purple","purple","1",1645,"purpleRED",337.919,378353,1982.919,1,28.426,231.226,434.026,202.839,405.626,608.426
"bas","stp",2,"197449","bas_stp_run2_197449","PINK","c","pc50","pink",2400,382695,38789,60,"pink","pink","pink","pink","1",978.5,"pinkPINK",343.906,383673.5,1322.406,1,28.426,231.226,434.026,202.839,405.626,608.426
"bas","stp",2,"197449","bas_stp_run2_197449","PINK","c","pc50","pink",2400,387495,38789,61,"pink","pink","pink","pink","1",670.5,"pinkPINK",348.706,388165.5,1019.206,1,28.426,231.226,434.026,202.839,405.626,608.426
"bas","stp",2,"197449","bas_stp_run2_197449","YELLOW","c","pc50","yellow",3600,392308,38789,62,"no-response","no-response","yellow","","no.response",0,"yellowYELLOW",353.519,392704,749.519,0,28.426,231.226,434.026,202.839,405.626,608.426
"bas","stp",2,"197449","bas_stp_run2_197449","GREEN","i","pc50","black",2400,398308,38789,63,"no-response","no-response","black","","no.response",0,"blackGREEN",359.519,NA,NA,0,28.426,231.226,434.026,202.839,405.626,608.426
"bas","stp",2,"197449","bas_stp_run2_197449","BLACK","c","pc50","black",1200,403108,38789,64,"black","black","black","black","1",951.5,"blackBLACK",364.319,404059.5,1315.819,1,28.426,231.226,434.026,202.839,405.626,608.426
"bas","stp",2,"197449","bas_stp_run2_197449","PINK","i","pc50","green",1200,406708,38789,65,"green","green","green","green","1",755.5,"greenPINK",367.919,407463.5,1123.419,1,28.426,231.226,434.026,202.839,405.626,608.426
"bas","stp",2,"197449","bas_stp_run2_197449","RED","c","mc","red",2400,410308,38789,66,"red","red","red","red","1",870.5,"redRED",371.519,411178.5,1242.019,1,28.426,231.226,434.026,202.839,405.626,608.426
"bas","stp",2,"197449","bas_stp_run2_197449","GREEN","c","pc50","green",3600,415108,38789,67,"green","green","green","green","1",618.5,"greenGREEN",376.319,415726.5,994.819,1,28.426,231.226,434.026,202.839,405.626,608.426
"bas","stp",2,"197449","bas_stp_run2_197449","WHITE","i","mc","red",1200,421095,38789,68,"white","white","red","white","0",1145.5,"redWHITE",382.306,422240.5,1527.806,0,28.426,231.226,434.026,202.839,405.626,608.426
"bas","stp",2,"197449","bas_stp_run2_197449","BLUE","c","mc","blue",2400,424695,38789,69,"blue","blue","blue","blue","1",881,"blueBLUE",385.906,425576,1266.906,1,28.426,231.226,434.026,202.839,405.626,608.426
"bas","stp",2,"197449","bas_stp_run2_197449","RED","c","mc","red",3600,429495,38789,70,"red","red","red","red","1",783,"redRED",390.706,430278,1173.706,1,28.426,231.226,434.026,202.839,405.626,608.426
"bas","stp",2,"197449","bas_stp_run2_197449","RED","c","mc","red",1200,435508,38789,71,"red","red","red","red","1",745,"redRED",396.719,436253,1141.719,1,28.426,231.226,434.026,202.839,405.626,608.426
"bas","stp",2,"197449","bas_stp_run2_197449","WHITE","c","mc","white",3600,439108,38789,72,"white","white","white","white","1",1389,"whiteWHITE",400.319,440497,1789.319,1,28.426,231.226,434.026,202.839,405.626,608.426
"bas","stp",2,"197449","bas_stp_run2_197449","WHITE","c","mc","white",2400,475108,38789,73,"no-response","no-response","white","","no.response",0,"whiteWHITE",436.319,475507.5,835.819,0,28.426,231.226,434.026,202.839,405.626,608.426
"bas","stp",2,"197449","bas_stp_run2_197449","RED","c","mc","red",1200,479908,38789,74,"no-response","no-response","red","","no.response",0,"redRED",441.119,480310.5,843.619,0,28.426,231.226,434.026,202.839,405.626,608.426
"bas","stp",2,"197449","bas_stp_run2_197449","BLACK","i","pc50","pink",3600,483508,38789,75,"no-response","no-response","pink","","no.response",0,"pinkBLACK",444.719,NA,NA,0,28.426,231.226,434.026,202.839,405.626,608.426
"bas","stp",2,"197449","bas_stp_run2_197449","WHITE","c","mc","white",3600,489508,38789,76,"white","white","white","white","1",699.5,"whiteWHITE",450.719,490207.5,1150.219,1,28.426,231.226,434.026,202.839,405.626,608.426
"bas","stp",2,"197449","bas_stp_run2_197449","BLUE","c","mc","blue",1200,495508,38789,77,"blue","blue","blue","blue","1",756.5,"blueBLUE",456.719,496264.5,1213.219,1,28.426,231.226,434.026,202.839,405.626,608.426
"bas","stp",2,"197449","bas_stp_run2_197449","BLUE","c","mc","blue",2400,499095,38789,78,"no-response","no-response","blue","","no.response",0,"blueBLUE",460.306,499521,886.306,0,28.426,231.226,434.026,202.839,405.626,608.426
"bas","stp",2,"197449","bas_stp_run2_197449","PINK","c","pc50","pink",1200,503895,38789,79,"pink","pink","pink","pink","1",829.5,"pinkPINK",465.106,504724.5,1294.606,1,28.426,231.226,434.026,202.839,405.626,608.426
"bas","stp",2,"197449","bas_stp_run2_197449","WHITE","c","mc","white",2400,507495,38789,80,"no-response","no-response","white","","no.response",0,"whiteWHITE",468.706,NA,NA,0,28.426,231.226,434.026,202.839,405.626,608.426
"bas","stp",2,"197449","bas_stp_run2_197449","YELLOW","c","pc50","yellow",3600,512295,38789,81,"no-response","no-response","yellow","","no.response",0,"yellowYELLOW",473.506,512737,915.506,0,28.426,231.226,434.026,202.839,405.626,608.426
"bas","stp",2,"197449","bas_stp_run2_197449","WHITE","c","mc","white",2400,518308,38789,82,"no-response","no-response","white","","no.response",0,"whiteWHITE",479.519,518707.5,879.019,0,28.426,231.226,434.026,202.839,405.626,608.426
"bas","stp",2,"197449","bas_stp_run2_197449","WHITE","i","mc","purple",3600,523108,38789,83,"no-response","no-response","purple","","no.response",0,"purpleWHITE",484.319,523511.5,887.819,0,28.426,231.226,434.026,202.839,405.626,608.426
"bas","stp",2,"197449","bas_stp_run2_197449","BLACK","c","pc50","black",1200,529108,38789,84,"black","black","black","black","1",976,"blackBLACK",490.319,530084,1466.319,1,28.426,231.226,434.026,202.839,405.626,608.426
"bas","stp",2,"197449","bas_stp_run2_197449","RED","i","mc","purple",3600,532708,38789,85,"red","red","purple","red","0",1200,"purpleRED",493.919,533908,1693.919,0,28.426,231.226,434.026,202.839,405.626,608.426
"bas","stp",2,"197449","bas_stp_run2_197449","BLACK","i","pc50","yellow",3600,538708,38789,86,"yellow","yellow","yellow","yellow","1",832,"yellowBLACK",499.919,539540,1331.919,1,28.426,231.226,434.026,202.839,405.626,608.426
"bas","stp",2,"197449","bas_stp_run2_197449","GREEN","i","pc50","black",2400,544695,38789,87,"no-response","no-response","black","","no.response",0,"blackGREEN",505.906,545105.5,916.406,0,28.426,231.226,434.026,202.839,405.626,608.426
"bas","stp",2,"197449","bas_stp_run2_197449","PURPLE","i","mc","blue",2400,549495,38789,88,"blue","blue","blue","blue","1",984,"bluePURPLE",510.706,550479,1494.706,1,28.426,231.226,434.026,202.839,405.626,608.426
"bas","stp",2,"197449","bas_stp_run2_197449","YELLOW","i","pc50","green",3600,554308,38789,89,"no-response","no-response","green","","no.response",0,"greenYELLOW",515.519,554704,911.519,0,28.426,231.226,434.026,202.839,405.626,608.426
"bas","stp",2,"197449","bas_stp_run2_197449","GREEN","c","pc50","green",1200,560308,38789,90,"no-response","no-response","green","","no.response",0,"greenGREEN",521.519,560723,936.519,0,28.426,231.226,434.026,202.839,405.626,608.426
"bas","stp",2,"197449","bas_stp_run2_197449","RED","c","mc","red",1200,563908,38789,91,"red","red","red","red","1",933.5,"redRED",525.119,564841.5,1458.619,1,28.426,231.226,434.026,202.839,405.626,608.426
"bas","stp",2,"197449","bas_stp_run2_197449","WHITE","i","mc","red",2400,567508,38789,92,"red","red","red","red","1",915.5,"redWHITE",528.719,568423.5,1444.219,1,28.426,231.226,434.026,202.839,405.626,608.426
"bas","stp",2,"197449","bas_stp_run2_197449","RED","i","mc","blue",2400,572308,38789,93,"blue","blue","blue","blue","1",825.5,"blueRED",533.519,573133.5,1359.019,1,28.426,231.226,434.026,202.839,405.626,608.426
"bas","stp",2,"197449","bas_stp_run2_197449","BLUE","c","mc","blue",3600,577108,38789,94,"no-response","no-response","blue","","no.response",0,"blueBLUE",538.319,577525,955.319,0,28.426,231.226,434.026,202.839,405.626,608.426
"bas","stp",2,"197449","bas_stp_run2_197449","BLUE","i","mc","white",1200,583095,38789,95,"no-response","no-response","white","","no.response",0,"whiteBLUE",544.306,583505.5,954.806,0,28.426,231.226,434.026,202.839,405.626,608.426
"bas","stp",2,"197449","bas_stp_run2_197449","PURPLE","c","mc","purple",1200,586695,38789,96,"no-response","no-response","purple","","no.response",0,"purplePURPLE",547.906,587105.5,958.406,0,28.426,231.226,434.026,202.839,405.626,608.426
"bas","stp",2,"197449","bas_stp_run2_197449","PINK","i","pc50","green",1200,590295,38789,97,"green","green","green","green","1",995,"greenPINK",551.506,591290,1546.506,1,28.426,231.226,434.026,202.839,405.626,608.426
"bas","stp",2,"197449","bas_stp_run2_197449","RED","c","mc","red",1200,593895,38789,98,"red","red","red","red","1",812.5,"redRED",555.106,594707.5,1367.606,1,28.426,231.226,434.026,202.839,405.626,608.426
"bas","stp",2,"197449","bas_stp_run2_197449","BLUE","c","mc","blue",3600,597509,38789,99,"blue","blue","blue","blue","1",1011.5,"blueBLUE",558.72,598520.5,1570.22,1,28.426,231.226,434.026,202.839,405.626,608.426
"bas","stp",2,"197449","bas_stp_run2_197449","BLACK","c","pc50","black",2400,603508,38789,100,"black","black","black","black","1",856.5,"blackBLACK",564.719,604364.5,1421.219,1,28.426,231.226,434.026,202.839,405.626,608.426
"bas","stp",2,"197449","bas_stp_run2_197449","PURPLE","c","mc","purple",3600,608308,38789,101,"no-response","no-response","purple","","no.response",0,"purplePURPLE",569.519,608709.5,971.019,0,28.426,231.226,434.026,202.839,405.626,608.426
"bas","stp",2,"197449","bas_stp_run2_197449","WHITE","c","mc","white",3600,614308,38789,102,"white","white","white","white","1",938.5,"whiteWHITE",575.519,615246.5,1514.019,1,28.426,231.226,434.026,202.839,405.626,608.426
"bas","stp",2,"197449","bas_stp_run2_197449","RED","c","mc","red",2400,620308,38789,103,"no-response","no-response","red","","no.response",0,"redRED",581.519,NA,NA,0,28.426,231.226,434.026,202.839,405.626,608.426
"bas","stp",2,"197449","bas_stp_run2_197449","PURPLE","c","mc","purple",1200,625095,38789,104,"no-response","no-response","purple","","no.response",0,"purplePURPLE",586.306,625505.5,996.806,0,28.426,231.226,434.026,202.839,405.626,608.426
"bas","stp",2,"197449","bas_stp_run2_197449","RED","c","mc","red",2400,628695,38789,105,"red","red","red","red","1",618.5,"redRED",589.906,629313.5,1208.406,1,28.426,231.226,434.026,202.839,405.626,608.426
"bas","stp",2,"197449","bas_stp_run2_197449","PINK","i","pc50","yellow",2400,633495,38789,106,"no-response","no-response","yellow","","no.response",0,"yellowPINK",594.706,633902,1001.706,0,28.426,231.226,434.026,202.839,405.626,608.426
"bas","stp",2,"197449","bas_stp_run2_197449","PURPLE","c","mc","purple",1200,638308,38789,107,"purple","purple","purple","purple","1",2097,"purplePURPLE",599.519,640405,2696.519,1,28.426,231.226,434.026,202.839,405.626,608.426
"bas","stp",2,"197449","bas_stp_run2_197449","PINK","c","pc50","pink",3600,641908,38789,108,"pink","pink","pink","pink","1",996,"pinkPINK",603.119,642904,1599.119,1,28.426,231.226,434.026,202.839,405.626,608.426
"pro","stp",1,"197449","pro_stp_run1_197449","WHITE","c","mi","white",1200,91704,60963,1,"white","white","white","white","1",749,"whiteWHITE",30.741,92453,779.741,1,28.441,231.225,434.024,202.841,405.658,608.458
"pro","stp",1,"197449","pro_stp_run1_197449","WHITE","i","mi","purple",1200,95288,60963,2,"purple","purple","purple","purple","1",1320,"purpleWHITE",34.325,96608,1354.325,1,28.441,231.225,434.024,202.841,405.658,608.458
"pro","stp",1,"197449","pro_stp_run1_197449","BLUE","i","mi","white",3600,98904,60963,3,"white","white","white","white","1",824,"whiteBLUE",37.941,99728,861.941,1,28.441,231.225,434.024,202.841,405.658,608.458
"pro","stp",1,"197449","pro_stp_run1_197449","PURPLE","c","mi","purple",2400,104888,60963,4,"purple","purple","purple","purple","1",589.5,"purplePURPLE",43.925,105477.5,633.425,1,28.441,231.225,434.024,202.841,405.658,608.458
"pro","stp",1,"197449","pro_stp_run1_197449","BLACK","c","pc50","black",1200,109704,60963,5,"black","black","black","black","1",666,"blackBLACK",48.741,110370,714.741,1,28.441,231.225,434.024,202.841,405.658,608.458
"pro","stp",1,"197449","pro_stp_run1_197449","PURPLE","i","mi","white",2400,113288,60963,6,"white","white","white","white","1",984.5,"whitePURPLE",52.325,114272.5,1036.825,1,28.441,231.225,434.024,202.841,405.658,608.458
"pro","stp",1,"197449","pro_stp_run1_197449","WHITE","i","mi","purple",3600,118104,60963,7,"purple","purple","purple","purple","1",659,"purpleWHITE",57.141,118763,716.141,1,28.441,231.225,434.024,202.841,405.658,608.458
"pro","stp",1,"197449","pro_stp_run1_197449","PURPLE","i","mi","blue",3600,124104,60963,8,"blue","blue","blue","blue","1",770,"bluePURPLE",63.141,124874,833.141,1,28.441,231.225,434.024,202.841,405.658,608.458
"pro","stp",1,"197449","pro_stp_run1_197449","RED","c","mi","red",2400,130088,60963,9,"red","red","red","red","1",697,"redRED",69.125,130785,766.125,1,28.441,231.225,434.024,202.841,405.658,608.458
"pro","stp",1,"197449","pro_stp_run1_197449","GREEN","c","pc50","green",2400,134904,60963,10,"green","green","green","green","1",611,"greenGREEN",73.941,135515,684.941,1,28.441,231.225,434.024,202.841,405.658,608.458
"pro","stp",1,"197449","pro_stp_run1_197449","GREEN","i","pc50","pink",3600,139688,60963,11,"pink","pink","pink","pink","1",611.5,"pinkGREEN",78.725,140299.5,690.225,1,28.441,231.225,434.024,202.841,405.658,608.458
"pro","stp",1,"197449","pro_stp_run1_197449","PINK","c","pc50","pink",1200,145704,60963,12,"pink","pink","pink","pink","1",734.5,"pinkPINK",84.741,146438.5,819.241,1,28.441,231.225,434.024,202.841,405.658,608.458
"pro","stp",1,"197449","pro_stp_run1_197449","WHITE","i","mi","red",1200,149288,60963,13,"red","red","red","red","1",940,"redWHITE",88.325,150228,1028.325,1,28.441,231.225,434.024,202.841,405.658,608.458
"pro","stp",1,"197449","pro_stp_run1_197449","PINK","i","pc50","black",3600,152904,60963,14,"black","black","black","black","1",1206.5,"blackPINK",91.941,154110.5,1298.441,1,28.441,231.225,434.024,202.841,405.658,608.458
"pro","stp",1,"197449","pro_stp_run1_197449","PURPLE","i","mi","red",2400,158888,60963,15,"red","red","red","red","1",999,"redPURPLE",97.925,159887,1096.925,1,28.441,231.225,434.024,202.841,405.658,608.458
"pro","stp",1,"197449","pro_stp_run1_197449","BLUE","i","mi","purple",3600,163704,60963,16,"purple","purple","purple","purple","1",734.5,"purpleBLUE",102.741,164438.5,837.241,1,28.441,231.225,434.024,202.841,405.658,608.458
"pro","stp",1,"197449","pro_stp_run1_197449","RED","i","mi","blue",2400,169704,60963,17,"blue","blue","blue","blue","1",733,"blueRED",108.741,170437,841.741,1,28.441,231.225,434.024,202.841,405.658,608.458
"pro","stp",1,"197449","pro_stp_run1_197449","RED","i","mi","blue",2400,174488,60963,18,"blue","blue","blue","blue","1",1269,"blueRED",113.525,175757,1382.525,1,28.441,231.225,434.024,202.841,405.658,608.458
"pro","stp",1,"197449","pro_stp_run1_197449","RED","i","mi","white",1200,179304,60963,19,"white","white","white","white","1",788.5,"whiteRED",118.341,180092.5,906.841,1,28.441,231.225,434.024,202.841,405.658,608.458
"pro","stp",1,"197449","pro_stp_run1_197449","WHITE","i","mi","blue",3600,182888,60963,20,"blue","blue","blue","blue","1",983.5,"blueWHITE",121.925,183871.5,1105.425,1,28.441,231.225,434.024,202.841,405.658,608.458
"pro","stp",1,"197449","pro_stp_run1_197449","RED","i","mi","purple",2400,188904,60963,21,"red","red","purple","red","0",797,"purpleRED",127.941,189701,924.941,0,28.441,231.225,434.024,202.841,405.658,608.458
"pro","stp",1,"197449","pro_stp_run1_197449","GREEN","c","pc50","green",1200,193688,60963,22,"green","green","green","green","1",560,"greenGREEN",132.725,194248,692.725,1,28.441,231.225,434.024,202.841,405.658,608.458
"pro","stp",1,"197449","pro_stp_run1_197449","WHITE","i","mi","red",3600,197304,60963,23,"red","red","red","red","1",1280.5,"redWHITE",136.341,198584.5,1416.841,1,28.441,231.225,434.024,202.841,405.658,608.458
"pro","stp",1,"197449","pro_stp_run1_197449","BLUE","i","mi","red",1200,203288,60963,24,"red","red","red","red","1",798.5,"redBLUE",142.325,204086.5,940.825,1,28.441,231.225,434.024,202.841,405.658,608.458
"pro","stp",1,"197449","pro_stp_run1_197449","YELLOW","i","pc50","black",3600,206904,60963,25,"yellow","yellow","black","yellow","0",1086,"blackYELLOW",145.941,207990,1231.941,0,28.441,231.225,434.024,202.841,405.658,608.458
"pro","stp",1,"197449","pro_stp_run1_197449","PURPLE","i","mi","blue",2400,212904,60963,26,"blue","blue","blue","blue","1",1246,"bluePURPLE",151.941,214150,1397.941,1,28.441,231.225,434.024,202.841,405.658,608.458
"pro","stp",1,"197449","pro_stp_run1_197449","YELLOW","c","pc50","yellow",2400,217704,60963,27,"yellow","yellow","yellow","yellow","1",809.5,"yellowYELLOW",156.741,218513.5,966.241,1,28.441,231.225,434.024,202.841,405.658,608.458
"pro","stp",1,"197449","pro_stp_run1_197449","BLUE","i","mi","white",1200,222504,60963,28,"white","white","white","white","1",737,"whiteBLUE",161.541,223241,898.541,1,28.441,231.225,434.024,202.841,405.658,608.458
"pro","stp",1,"197449","pro_stp_run1_197449","RED","i","mi","purple",3600,226104,60963,29,"purple","purple","purple","purple","1",926,"purpleRED",165.141,227030,1091.141,1,28.441,231.225,434.024,202.841,405.658,608.458
"pro","stp",1,"197449","pro_stp_run1_197449","GREEN","i","pc50","yellow",3600,232104,60963,30,"yellow","yellow","yellow","yellow","1",1095,"yellowGREEN",171.141,233199,1266.141,1,28.441,231.225,434.024,202.841,405.658,608.458
"pro","stp",1,"197449","pro_stp_run1_197449","YELLOW","i","pc50","pink",1200,238088,60963,31,"pink","pink","pink","pink","1",710,"pinkYELLOW",177.125,238798,887.125,1,28.441,231.225,434.024,202.841,405.658,608.458
"pro","stp",1,"197449","pro_stp_run1_197449","BLUE","c","mi","blue",1200,241704,60963,32,"blue","blue","blue","blue","1",1010,"blueBLUE",180.741,242714,1190.741,1,28.441,231.225,434.024,202.841,405.658,608.458
"pro","stp",1,"197449","pro_stp_run1_197449","BLACK","i","pc50","green",2400,245288,60963,33,"green","green","green","green","1",919.5,"greenBLACK",184.325,246207.5,1103.825,1,28.441,231.225,434.024,202.841,405.658,608.458
"pro","stp",1,"197449","pro_stp_run1_197449","YELLOW","c","pc50","yellow",2400,250104,60963,34,"yellow","yellow","yellow","yellow","1",1039.5,"yellowYELLOW",189.141,251143.5,1228.641,1,28.441,231.225,434.024,202.841,405.658,608.458
"pro","stp",1,"197449","pro_stp_run1_197449","BLUE","c","mi","blue",1200,254888,60963,35,"blue","blue","blue","blue","1",862.5,"blueBLUE",193.925,255750.5,1056.425,1,28.441,231.225,434.024,202.841,405.658,608.458
"pro","stp",1,"197449","pro_stp_run1_197449","PURPLE","c","mi","purple",3600,258504,60963,36,"purple","purple","purple","purple","1",730,"purplePURPLE",197.541,259234,927.541,1,28.441,231.225,434.024,202.841,405.658,608.458
"pro","stp",1,"197449","pro_stp_run1_197449","BLUE","c","mi","blue",2400,294504,60963,37,"blue","blue","blue","blue","1",896,"blueBLUE",233.541,295400,1129.541,1,28.441,231.225,434.024,202.841,405.658,608.458
"pro","stp",1,"197449","pro_stp_run1_197449","BLACK","i","pc50","green",2400,299288,60963,38,"green","green","green","green","1",818,"greenBLACK",238.325,300106,1056.325,1,28.441,231.225,434.024,202.841,405.658,608.458
"pro","stp",1,"197449","pro_stp_run1_197449","RED","i","mi","blue",3600,304104,60963,39,"blue","blue","blue","blue","1",890,"blueRED",243.141,304994,1133.141,1,28.441,231.225,434.024,202.841,405.658,608.458
"pro","stp",1,"197449","pro_stp_run1_197449","BLUE","i","mi","red",3600,310088,60963,40,"red","red","red","red","1",823,"redBLUE",249.125,310911,1072.125,1,28.441,231.225,434.024,202.841,405.658,608.458
"pro","stp",1,"197449","pro_stp_run1_197449","RED","i","mi","purple",1200,316104,60963,41,"purple","purple","purple","purple","1",1187,"purpleRED",255.141,317291,1442.141,1,28.441,231.225,434.024,202.841,405.658,608.458
"pro","stp",1,"197449","pro_stp_run1_197449","GREEN","i","pc50","yellow",3600,319704,60963,42,"yellow","yellow","yellow","yellow","1",1146,"yellowGREEN",258.741,320850,1404.741,1,28.441,231.225,434.024,202.841,405.658,608.458
"pro","stp",1,"197449","pro_stp_run1_197449","BLACK","c","pc50","black",2400,325688,60963,43,"black","black","black","black","1",834.5,"blackBLACK",264.725,326522.5,1099.225,1,28.441,231.225,434.024,202.841,405.658,608.458
"pro","stp",1,"197449","pro_stp_run1_197449","PINK","i","pc50","black",1200,330504,60963,44,"black","black","black","black","1",780.5,"blackPINK",269.541,331284.5,1050.041,1,28.441,231.225,434.024,202.841,405.658,608.458
"pro","stp",1,"197449","pro_stp_run1_197449","GREEN","c","pc50","green",1200,334088,60963,45,"green","green","green","green","1",1055.5,"greenGREEN",273.125,335143.5,1328.625,1,28.441,231.225,434.024,202.841,405.658,608.458
"pro","stp",1,"197449","pro_stp_run1_197449","BLUE","i","mi","white",3600,337704,60963,46,"white","white","white","white","1",825.5,"whiteBLUE",276.741,338529.5,1102.241,1,28.441,231.225,434.024,202.841,405.658,608.458
"pro","stp",1,"197449","pro_stp_run1_197449","WHITE","c","mi","white",1200,343688,60963,47,"white","white","white","white","1",772.5,"whiteWHITE",282.725,344460.5,1055.225,1,28.441,231.225,434.024,202.841,405.658,608.458
"pro","stp",1,"197449","pro_stp_run1_197449","PURPLE","c","mi","purple",2400,347304,60963,48,"purple","purple","purple","purple","1",826,"purplePURPLE",286.341,348130,1112.341,1,28.441,231.225,434.024,202.841,405.658,608.458
"pro","stp",1,"197449","pro_stp_run1_197449","WHITE","i","mi","red",2400,352088,60963,49,"red","red","red","red","1",949.5,"redWHITE",291.125,353037.5,1240.625,1,28.441,231.225,434.024,202.841,405.658,608.458
"pro","stp",1,"197449","pro_stp_run1_197449","YELLOW","i","pc50","black",1200,356904,60963,50,"black","black","black","black","1",669,"blackYELLOW",295.941,357573,964.941,1,28.441,231.225,434.024,202.841,405.658,608.458
"pro","stp",1,"197449","pro_stp_run1_197449","BLUE","c","mi","blue",2400,360504,60963,51,"blue","blue","blue","blue","1",1392.5,"blueBLUE",299.541,361896.5,1692.041,1,28.441,231.225,434.024,202.841,405.658,608.458
"pro","stp",1,"197449","pro_stp_run1_197449","PURPLE","c","mi","purple",1200,365304,60963,52,"purple","purple","purple","purple","1",928,"purplePURPLE",304.341,366232,1232.341,1,28.441,231.225,434.024,202.841,405.658,608.458
"pro","stp",1,"197449","pro_stp_run1_197449","WHITE","i","mi","purple",3600,368904,60963,53,"purple","purple","purple","purple","1",1630.5,"purpleWHITE",307.941,370534.5,1938.441,1,28.441,231.225,434.024,202.841,405.658,608.458
"pro","stp",1,"197449","pro_stp_run1_197449","PURPLE","i","mi","blue",3600,374904,60963,54,"blue","blue","blue","blue","1",831,"bluePURPLE",313.941,375735,1144.941,1,28.441,231.225,434.024,202.841,405.658,608.458
"pro","stp",1,"197449","pro_stp_run1_197449","PURPLE","i","mi","blue",1200,380888,60963,55,"blue","blue","blue","blue","1",963,"bluePURPLE",319.925,381851,1282.925,1,28.441,231.225,434.024,202.841,405.658,608.458
"pro","stp",1,"197449","pro_stp_run1_197449","WHITE","i","mi","purple",1200,384504,60963,56,"purple","purple","purple","purple","1",847,"purpleWHITE",323.541,385351,1170.541,1,28.441,231.225,434.024,202.841,405.658,608.458
"pro","stp",1,"197449","pro_stp_run1_197449","RED","c","mi","red",2400,388088,60963,57,"red","red","red","red","1",1095.5,"redRED",327.125,389183.5,1422.625,1,28.441,231.225,434.024,202.841,405.658,608.458
"pro","stp",1,"197449","pro_stp_run1_197449","WHITE","i","mi","red",2400,392904,60963,58,"red","red","red","red","1",1392,"redWHITE",331.941,394296,1723.941,1,28.441,231.225,434.024,202.841,405.658,608.458
"pro","stp",1,"197449","pro_stp_run1_197449","RED","i","mi","blue",3600,397688,60963,59,"blue","blue","blue","blue","1",795.5,"blueRED",336.725,398483.5,1132.225,1,28.441,231.225,434.024,202.841,405.658,608.458
"pro","stp",1,"197449","pro_stp_run1_197449","YELLOW","c","pc50","yellow",3600,403704,60963,60,"yellow","yellow","yellow","yellow","1",1296.5,"yellowYELLOW",342.741,405000.5,1639.241,1,28.441,231.225,434.024,202.841,405.658,608.458
"pro","stp",1,"197449","pro_stp_run1_197449","WHITE","i","mi","blue",1200,409704,60963,61,"blue","blue","blue","blue","1",1239,"blueWHITE",348.741,410943,1587.741,1,28.441,231.225,434.024,202.841,405.658,608.458
"pro","stp",1,"197449","pro_stp_run1_197449","YELLOW","i","pc50","pink",2400,413304,60963,62,"pink","pink","pink","pink","1",767,"pinkYELLOW",352.341,414071,1119.341,1,28.441,231.225,434.024,202.841,405.658,608.458
"pro","stp",1,"197449","pro_stp_run1_197449","GREEN","i","pc50","pink",3600,418104,60963,63,"pink","pink","pink","pink","1",607,"pinkGREEN",357.141,418711,964.141,1,28.441,231.225,434.024,202.841,405.658,608.458
"pro","stp",1,"197449","pro_stp_run1_197449","PURPLE","i","mi","white",3600,424088,60963,64,"white","white","white","white","1",928,"whitePURPLE",363.125,425016,1291.125,1,28.441,231.225,434.024,202.841,405.658,608.458
"pro","stp",1,"197449","pro_stp_run1_197449","BLUE","i","mi","white",2400,430104,60963,65,"white","white","white","white","1",788.5,"whiteBLUE",369.141,430892.5,1157.641,1,28.441,231.225,434.024,202.841,405.658,608.458
"pro","stp",1,"197449","pro_stp_run1_197449","RED","i","mi","white",2400,434887,60963,66,"white","white","white","white","1",1017,"whiteRED",373.924,435904,1390.924,1,28.441,231.225,434.024,202.841,405.658,608.458
"pro","stp",1,"197449","pro_stp_run1_197449","YELLOW","c","pc50","yellow",1200,439704,60963,67,"yellow","yellow","yellow","yellow","1",930,"yellowYELLOW",378.741,440634,1308.741,1,28.441,231.225,434.024,202.841,405.658,608.458
"pro","stp",1,"197449","pro_stp_run1_197449","RED","i","mi","purple",1200,443287,60963,68,"purple","purple","purple","purple","1",897,"purpleRED",382.324,444184,1279.324,1,28.441,231.225,434.024,202.841,405.658,608.458
"pro","stp",1,"197449","pro_stp_run1_197449","BLUE","i","mi","purple",2400,446904,60963,69,"purple","purple","purple","purple","1",701,"purpleBLUE",385.941,447605,1086.941,1,28.441,231.225,434.024,202.841,405.658,608.458
"pro","stp",1,"197449","pro_stp_run1_197449","PINK","c","pc50","pink",3600,451687,60963,70,"pink","pink","pink","pink","1",671.5,"pinkPINK",390.724,452358.5,1062.224,1,28.441,231.225,434.024,202.841,405.658,608.458
"pro","stp",1,"197449","pro_stp_run1_197449","PURPLE","i","mi","red",3600,457704,60963,71,"red","red","red","red","1",958,"redPURPLE",396.741,458662,1354.741,1,28.441,231.225,434.024,202.841,405.658,608.458
"pro","stp",1,"197449","pro_stp_run1_197449","GREEN","c","pc50","green",1200,463704,60963,72,"green","green","green","green","1",978.5,"greenGREEN",402.741,464682.5,1381.241,1,28.441,231.225,434.024,202.841,405.658,608.458
"pro","stp",1,"197449","pro_stp_run1_197449","GREEN","i","pc50","pink",3600,497304,60963,73,"pink","pink","pink","pink","1",906,"pinkGREEN",436.341,498210,1342.341,1,28.441,231.225,434.024,202.841,405.658,608.458
"pro","stp",1,"197449","pro_stp_run1_197449","PURPLE","i","mi","blue",2400,503287,60963,74,"blue","blue","blue","blue","1",773,"bluePURPLE",442.324,504060,1215.324,1,28.441,231.225,434.024,202.841,405.658,608.458
"pro","stp",1,"197449","pro_stp_run1_197449","WHITE","i","mi","purple",1200,508104,60963,75,"purple","purple","purple","purple","1",1068,"purpleWHITE",447.141,509172,1515.141,1,28.441,231.225,434.024,202.841,405.658,608.458
"pro","stp",1,"197449","pro_stp_run1_197449","PURPLE","i","mi","white",1200,511687,60963,76,"white","white","white","white","1",1199,"whitePURPLE",450.724,512886,1649.724,1,28.441,231.225,434.024,202.841,405.658,608.458
"pro","stp",1,"197449","pro_stp_run1_197449","YELLOW","i","pc50","pink",3600,515304,60963,77,"pink","pink","pink","pink","1",612.5,"pinkYELLOW",454.341,515916.5,1066.841,1,28.441,231.225,434.024,202.841,405.658,608.458
"pro","stp",1,"197449","pro_stp_run1_197449","RED","i","mi","blue",1200,521287,60963,78,"blue","blue","blue","blue","1",722.5,"blueRED",460.324,522009.5,1182.824,1,28.441,231.225,434.024,202.841,405.658,608.458
"pro","stp",1,"197449","pro_stp_run1_197449","WHITE","i","mi","red",3600,524904,60963,79,"red","red","red","red","1",1104,"redWHITE",463.941,526008,1567.941,1,28.441,231.225,434.024,202.841,405.658,608.458
"pro","stp",1,"197449","pro_stp_run1_197449","BLUE","i","mi","white",3600,530887,60963,80,"white","white","white","white","1",762.5,"whiteBLUE",469.924,531649.5,1232.424,1,28.441,231.225,434.024,202.841,405.658,608.458
"pro","stp",1,"197449","pro_stp_run1_197449","BLUE","i","mi","purple",2400,536904,60963,81,"purple","purple","purple","purple","1",918.5,"purpleBLUE",475.941,537822.5,1394.441,1,28.441,231.225,434.024,202.841,405.658,608.458
"pro","stp",1,"197449","pro_stp_run1_197449","RED","i","mi","purple",1200,541704,60963,82,"purple","purple","purple","purple","1",1201.5,"purpleRED",480.741,542905.5,1682.241,1,28.441,231.225,434.024,202.841,405.658,608.458
"pro","stp",1,"197449","pro_stp_run1_197449","YELLOW","i","pc50","black",2400,545304,60963,83,"black","black","black","black","1",876.5,"blackYELLOW",484.341,546180.5,1360.841,1,28.441,231.225,434.024,202.841,405.658,608.458
"pro","stp",1,"197449","pro_stp_run1_197449","YELLOW","c","pc50","yellow",2400,550087,60963,84,"yellow","yellow","yellow","yellow","1",1099.5,"yellowYELLOW",489.124,551186.5,1588.624,1,28.441,231.225,434.024,202.841,405.658,608.458
"pro","stp",1,"197449","pro_stp_run1_197449","BLACK","c","pc50","black",1200,554904,60963,85,"black","black","black","black","1",764.5,"blackBLACK",493.941,555668.5,1258.441,1,28.441,231.225,434.024,202.841,405.658,608.458
"pro","stp",1,"197449","pro_stp_run1_197449","PURPLE","c","mi","purple",3600,558487,60963,86,"purple","purple","purple","purple","1",951.5,"purplePURPLE",497.524,559438.5,1449.024,1,28.441,231.225,434.024,202.841,405.658,608.458
"pro","stp",1,"197449","pro_stp_run1_197449","YELLOW","c","pc50","yellow",1200,564504,60963,87,"yellow","yellow","yellow","yellow","1",996,"yellowYELLOW",503.541,565500,1499.541,1,28.441,231.225,434.024,202.841,405.658,608.458
"pro","stp",1,"197449","pro_stp_run1_197449","GREEN","i","pc50","yellow",2400,568087,60963,88,"yellow","yellow","yellow","yellow","1",1499,"yellowGREEN",507.124,569586,2006.124,1,28.441,231.225,434.024,202.841,405.658,608.458
"pro","stp",1,"197449","pro_stp_run1_197449","BLUE","i","mi","red",3600,572904,60963,89,"red","red","red","red","1",771.5,"redBLUE",511.941,573675.5,1283.441,1,28.441,231.225,434.024,202.841,405.658,608.458
"pro","stp",1,"197449","pro_stp_run1_197449","WHITE","i","mi","purple",1200,578904,60963,90,"purple","purple","purple","purple","1",755,"purpleWHITE",517.941,579659,1272.941,1,28.441,231.225,434.024,202.841,405.658,608.458
"pro","stp",1,"197449","pro_stp_run1_197449","WHITE","i","mi","blue",2400,582504,60963,91,"blue","blue","blue","blue","1",1020,"blueWHITE",521.541,583524,1541.541,1,28.441,231.225,434.024,202.841,405.658,608.458
"pro","stp",1,"197449","pro_stp_run1_197449","RED","i","mi","purple",3600,587304,60963,92,"purple","purple","purple","purple","1",1121.5,"purpleRED",526.341,588425.5,1647.841,1,28.441,231.225,434.024,202.841,405.658,608.458
"pro","stp",1,"197449","pro_stp_run1_197449","BLUE","i","mi","white",1200,593287,60963,93,"white","white","white","white","1",987,"whiteBLUE",532.324,594274,1519.324,1,28.441,231.225,434.024,202.841,405.658,608.458
"pro","stp",1,"197449","pro_stp_run1_197449","RED","i","mi","blue",2400,596904,60963,94,"blue","blue","blue","blue","1",893,"blueRED",535.941,597797,1428.941,1,28.441,231.225,434.024,202.841,405.658,608.458
"pro","stp",1,"197449","pro_stp_run1_197449","BLUE","c","mi","blue",3600,601687,60963,95,"blue","blue","blue","blue","1",887,"blueBLUE",540.724,602574,1427.724,1,28.441,231.225,434.024,202.841,405.658,608.458
"pro","stp",1,"197449","pro_stp_run1_197449","RED","i","mi","white",2400,607704,60963,96,"white","white","white","white","1",2132,"whiteRED",546.741,609836,2678.741,1,28.441,231.225,434.024,202.841,405.658,608.458
"pro","stp",1,"197449","pro_stp_run1_197449","PINK","c","pc50","pink",2400,612487,60963,97,"pink","pink","pink","pink","1",601.5,"pinkPINK",551.524,613088.5,1153.024,1,28.441,231.225,434.024,202.841,405.658,608.458
"pro","stp",1,"197449","pro_stp_run1_197449","BLACK","i","pc50","green",1200,617304,60963,98,"green","green","green","green","1",696,"greenBLACK",556.341,618000,1252.341,1,28.441,231.225,434.024,202.841,405.658,608.458
"pro","stp",1,"197449","pro_stp_run1_197449","PURPLE","c","mi","purple",1200,620887,60963,99,"purple","purple","purple","purple","1",1212,"purplePURPLE",559.924,622099,1771.924,1,28.441,231.225,434.024,202.841,405.658,608.458
"pro","stp",1,"197449","pro_stp_run1_197449","WHITE","i","mi","red",1200,624504,60963,100,"red","red","red","red","1",892,"redWHITE",563.541,625396,1455.541,1,28.441,231.225,434.024,202.841,405.658,608.458
"pro","stp",1,"197449","pro_stp_run1_197449","BLUE","c","mi","blue",2400,628087,60963,101,"blue","blue","blue","blue","1",838,"blueBLUE",567.124,628925,1405.124,1,28.441,231.225,434.024,202.841,405.658,608.458
"pro","stp",1,"197449","pro_stp_run1_197449","WHITE","c","mi","white",3600,632904,60963,102,"white","white","white","white","1",1003.5,"whiteWHITE",571.941,633907.5,1575.441,1,28.441,231.225,434.024,202.841,405.658,608.458
"pro","stp",1,"197449","pro_stp_run1_197449","PURPLE","i","mi","blue",1200,638887,60963,103,"blue","blue","blue","blue","1",2345.5,"bluePURPLE",577.924,641232.5,2923.424,1,28.441,231.225,434.024,202.841,405.658,608.458
"pro","stp",1,"197449","pro_stp_run1_197449","RED","c","mi","red",2400,642504,60963,104,"red","red","red","red","1",792.5,"redRED",581.541,643296.5,1374.041,1,28.441,231.225,434.024,202.841,405.658,608.458
"pro","stp",1,"197449","pro_stp_run1_197449","GREEN","c","pc50","green",2400,647287,60963,105,"green","green","green","green","1",615.5,"greenGREEN",586.324,647902.5,1201.824,1,28.441,231.225,434.024,202.841,405.658,608.458
"pro","stp",1,"197449","pro_stp_run1_197449","PURPLE","i","mi","red",3600,652104,60963,106,"red","red","red","red","1",2246,"redPURPLE",591.141,654350,2837.141,1,28.441,231.225,434.024,202.841,405.658,608.458
"pro","stp",1,"197449","pro_stp_run1_197449","GREEN","c","pc50","green",3600,658104,60963,107,"green","green","green","green","1",792,"greenGREEN",597.141,658896,1389.141,1,28.441,231.225,434.024,202.841,405.658,608.458
"pro","stp",1,"197449","pro_stp_run1_197449","PINK","i","pc50","black",3600,664087,60963,108,"black","black","black","black","1",916.5,"blackPINK",603.124,665003.5,1519.624,1,28.441,231.225,434.024,202.841,405.658,608.458
"pro","stp",2,"197449","pro_stp_run2_197449","RED","c","mi","red",2400,73819,43073,1,"red","red","red","red","1",875,"redRED",30.746,74694,905.746,1,28.446,231.246,434.029,202.829,405.646,608.446
"pro","stp",2,"197449","pro_stp_run2_197449","GREEN","i","pc50","black",2400,78619,43073,2,"black","black","black","black","1",641,"blackGREEN",35.546,79260,676.546,1,28.446,231.246,434.029,202.829,405.646,608.446
"pro","stp",2,"197449","pro_stp_run2_197449","BLACK","i","pc50","yellow",1200,83419,43073,3,"yellow","yellow","yellow","yellow","1",1135,"yellowBLACK",40.346,84554,1175.346,1,28.446,231.246,434.029,202.829,405.646,608.446
"pro","stp",2,"197449","pro_stp_run2_197449","PINK","c","pc50","pink",3600,87003,43073,4,"pink","pink","pink","pink","1",882,"pinkPINK",43.93,87885,925.93,1,28.446,231.246,434.029,202.829,405.646,608.446
"pro","stp",2,"197449","pro_stp_run2_197449","BLUE","i","mi","purple",1200,93003,43073,5,"purple","purple","purple","purple","1",753,"purpleBLUE",49.93,93756,802.93,1,28.446,231.246,434.029,202.829,405.646,608.446
"pro","stp",2,"197449","pro_stp_run2_197449","WHITE","i","mi","purple",1200,96619,43073,6,"purple","purple","purple","purple","1",1302,"purpleWHITE",53.546,97921,1355.546,1,28.446,231.246,434.029,202.829,405.646,608.446
"pro","stp",2,"197449","pro_stp_run2_197449","PINK","i","pc50","yellow",1200,100219,43073,7,"yellow","yellow","yellow","yellow","1",1276.5,"yellowPINK",57.146,101495.5,1333.646,1,28.446,231.246,434.029,202.829,405.646,608.446
"pro","stp",2,"197449","pro_stp_run2_197449","BLUE","i","mi","white",3600,103803,43073,8,"white","white","white","white","1",918.5,"whiteBLUE",60.73,104721.5,979.23,1,28.446,231.246,434.029,202.829,405.646,608.446
"pro","stp",2,"197449","pro_stp_run2_197449","RED","i","mi","white",3600,109819,43073,9,"white","white","white","white","1",778,"whiteRED",66.746,110597,844.746,1,28.446,231.246,434.029,202.829,405.646,608.446
"pro","stp",2,"197449","pro_stp_run2_197449","PURPLE","i","mi","red",3600,115819,43073,10,"red","red","red","red","1",1290.5,"redPURPLE",72.746,117109.5,1363.246,1,28.446,231.246,434.029,202.829,405.646,608.446
"pro","stp",2,"197449","pro_stp_run2_197449","WHITE","i","mi","blue",2400,121803,43073,11,"blue","blue","blue","blue","1",927.5,"blueWHITE",78.73,122730.5,1006.23,1,28.446,231.246,434.029,202.829,405.646,608.446
"pro","stp",2,"197449","pro_stp_run2_197449","PURPLE","i","mi","white",2400,126619,43073,12,"white","white","white","white","1",854,"whitePURPLE",83.546,127473,937.546,1,28.446,231.246,434.029,202.829,405.646,608.446
"pro","stp",2,"197449","pro_stp_run2_197449","RED","i","mi","purple",1200,131403,43073,13,"purple","purple","purple","purple","1",1387,"purpleRED",88.33,132790,1475.33,1,28.446,231.246,434.029,202.829,405.646,608.446
"pro","stp",2,"197449","pro_stp_run2_197449","BLUE","i","mi","red",3600,135019,43073,14,"red","red","red","red","1",1169.5,"redBLUE",91.946,136188.5,1261.446,1,28.446,231.246,434.029,202.829,405.646,608.446
"pro","stp",2,"197449","pro_stp_run2_197449","RED","i","mi","white",3600,141019,43073,15,"white","white","white","white","1",844.5,"whiteRED",97.946,141863.5,942.446,1,28.446,231.246,434.029,202.829,405.646,608.446
"pro","stp",2,"197449","pro_stp_run2_197449","PURPLE","c","mi","purple",2400,147003,43073,16,"purple","purple","purple","purple","1",753,"purplePURPLE",103.93,147756,856.93,1,28.446,231.246,434.029,202.829,405.646,608.446
"pro","stp",2,"197449","pro_stp_run2_197449","GREEN","c","pc50","green",3600,151819,43073,17,"green","green","green","green","1",1029.5,"greenGREEN",108.746,152848.5,1138.246,1,28.446,231.246,434.029,202.829,405.646,608.446
"pro","stp",2,"197449","pro_stp_run2_197449","PINK","i","pc50","green",2400,157803,43073,18,"green","green","green","green","1",1149.5,"greenPINK",114.73,158952.5,1264.23,1,28.446,231.246,434.029,202.829,405.646,608.446
"pro","stp",2,"197449","pro_stp_run2_197449","BLUE","i","mi","red",2400,162619,43073,19,"red","red","red","red","1",1181.5,"redBLUE",119.546,163800.5,1301.046,1,28.446,231.246,434.029,202.829,405.646,608.446
"pro","stp",2,"197449","pro_stp_run2_197449","BLACK","c","pc50","black",3600,167419,43073,20,"black","black","black","black","1",791,"blackBLACK",124.346,168210,915.346,1,28.446,231.246,434.029,202.829,405.646,608.446
"pro","stp",2,"197449","pro_stp_run2_197449","RED","c","mi","red",1200,173402,43073,21,"red","red","red","red","1",919.5,"redRED",130.329,174321.5,1049.829,1,28.446,231.246,434.029,202.829,405.646,608.446
"pro","stp",2,"197449","pro_stp_run2_197449","BLUE","c","mi","blue",2400,177019,43073,22,"blue","blue","blue","blue","1",960.5,"blueBLUE",133.946,177979.5,1094.446,1,28.446,231.246,434.029,202.829,405.646,608.446
"pro","stp",2,"197449","pro_stp_run2_197449","BLACK","i","pc50","pink",1200,181819,43073,23,"pink","pink","pink","pink","1",876.5,"pinkBLACK",138.746,182695.5,1015.246,1,28.446,231.246,434.029,202.829,405.646,608.446
"pro","stp",2,"197449","pro_stp_run2_197449","YELLOW","c","pc50","yellow",1200,185419,43073,24,"yellow","yellow","yellow","yellow","1",714.5,"yellowYELLOW",142.346,186133.5,856.846,1,28.446,231.246,434.029,202.829,405.646,608.446
"pro","stp",2,"197449","pro_stp_run2_197449","BLACK","c","pc50","black",1200,189019,43073,25,"black","black","black","black","1",720.5,"blackBLACK",145.946,189739.5,866.446,1,28.446,231.246,434.029,202.829,405.646,608.446
"pro","stp",2,"197449","pro_stp_run2_197449","PURPLE","i","mi","blue",1200,192602,43073,26,"blue","blue","blue","blue","1",1263,"bluePURPLE",149.529,193865,1412.529,1,28.446,231.246,434.029,202.829,405.646,608.446
"pro","stp",2,"197449","pro_stp_run2_197449","PINK","c","pc50","pink",3600,196219,43073,27,"pink","pink","pink","pink","1",840,"pinkPINK",153.146,197059,993.146,1,28.446,231.246,434.029,202.829,405.646,608.446
"pro","stp",2,"197449","pro_stp_run2_197449","BLUE","i","mi","purple",3600,202202,43073,28,"purple","purple","purple","purple","1",1015.5,"purpleBLUE",159.129,203217.5,1174.629,1,28.446,231.246,434.029,202.829,405.646,608.446
"pro","stp",2,"197449","pro_stp_run2_197449","WHITE","c","mi","white",1200,208219,43073,29,"white","white","white","white","1",1158.5,"whiteWHITE",165.146,209377.5,1323.646,1,28.446,231.246,434.029,202.829,405.646,608.446
"pro","stp",2,"197449","pro_stp_run2_197449","WHITE","i","mi","blue",2400,211819,43073,30,"blue","blue","blue","blue","1",1288,"blueWHITE",168.746,213107,1456.746,1,28.446,231.246,434.029,202.829,405.646,608.446
"pro","stp",2,"197449","pro_stp_run2_197449","WHITE","i","mi","red",3600,216619,43073,31,"red","red","red","red","1",1066,"redWHITE",173.546,217685,1239.546,1,28.446,231.246,434.029,202.829,405.646,608.446
"pro","stp",2,"197449","pro_stp_run2_197449","PURPLE","i","mi","red",1200,222619,43073,32,"red","red","red","red","1",922,"redPURPLE",179.546,223541,1101.546,1,28.446,231.246,434.029,202.829,405.646,608.446
"pro","stp",2,"197449","pro_stp_run2_197449","YELLOW","i","pc50","green",2400,226219,43073,33,"green","green","green","green","1",991.5,"greenYELLOW",183.146,227210.5,1174.646,1,28.446,231.246,434.029,202.829,405.646,608.446
"pro","stp",2,"197449","pro_stp_run2_197449","RED","i","mi","blue",3600,231019,43073,34,"blue","blue","blue","blue","1",791,"blueRED",187.946,231810,978.946,1,28.446,231.246,434.029,202.829,405.646,608.446
"pro","stp",2,"197449","pro_stp_run2_197449","WHITE","c","mi","white",2400,237002,43073,35,"white","white","white","white","1",1083,"whiteWHITE",193.929,238085,1276.929,1,28.446,231.246,434.029,202.829,405.646,608.446
"pro","stp",2,"197449","pro_stp_run2_197449","PURPLE","i","mi","white",2400,241819,43073,36,"white","white","white","white","1",932.5,"whitePURPLE",198.746,242751.5,1131.246,1,28.446,231.246,434.029,202.829,405.646,608.446
"pro","stp",2,"197449","pro_stp_run2_197449","PINK","i","pc50","green",1200,276619,43073,37,"green","green","green","green","1",724,"greenPINK",233.546,277343,957.546,1,28.446,231.246,434.029,202.829,405.646,608.446
"pro","stp",2,"197449","pro_stp_run2_197449","BLUE","i","mi","purple",1200,280202,43073,38,"purple","purple","purple","purple","1",933,"purpleBLUE",237.129,281135,1170.129,1,28.446,231.246,434.029,202.829,405.646,608.446
"pro","stp",2,"197449","pro_stp_run2_197449","YELLOW","c","pc50","yellow",2400,283819,43073,39,"yellow","yellow","yellow","yellow","1",873,"yellowYELLOW",240.746,284692,1113.746,1,28.446,231.246,434.029,202.829,405.646,608.446
"pro","stp",2,"197449","pro_stp_run2_197449","YELLOW","i","pc50","green",3600,288602,43073,40,"green","green","green","green","1",663.5,"greenYELLOW",245.529,289265.5,909.029,1,28.446,231.246,434.029,202.829,405.646,608.446
"pro","stp",2,"197449","pro_stp_run2_197449","BLACK","i","pc50","pink",3600,294619,43073,41,"pink","pink","pink","pink","1",654,"pinkBLACK",251.546,295273,905.546,1,28.446,231.246,434.029,202.829,405.646,608.446
"pro","stp",2,"197449","pro_stp_run2_197449","PINK","c","pc50","pink",2400,300619,43073,42,"pink","pink","pink","pink","1",726.5,"pinkPINK",257.546,301345.5,984.046,1,28.446,231.246,434.029,202.829,405.646,608.446
"pro","stp",2,"197449","pro_stp_run2_197449","RED","c","mi","red",1200,305419,43073,43,"red","red","red","red","1",1180.5,"redRED",262.346,306599.5,1442.846,1,28.446,231.246,434.029,202.829,405.646,608.446
"pro","stp",2,"197449","pro_stp_run2_197449","BLUE","i","mi","white",2400,309002,43073,44,"white","white","white","white","1",915.5,"whiteBLUE",265.929,309917.5,1181.429,1,28.446,231.246,434.029,202.829,405.646,608.446
"pro","stp",2,"197449","pro_stp_run2_197449","RED","i","mi","purple",3600,313819,43073,45,"purple","purple","purple","purple","1",781.5,"purpleRED",270.746,314600.5,1052.246,1,28.446,231.246,434.029,202.829,405.646,608.446
"pro","stp",2,"197449","pro_stp_run2_197449","RED","c","mi","red",1200,319819,43073,46,"red","red","red","red","1",1444,"redRED",276.746,321263,1720.746,1,28.446,231.246,434.029,202.829,405.646,608.446
"pro","stp",2,"197449","pro_stp_run2_197449","RED","i","mi","blue",2400,323419,43073,47,"blue","blue","blue","blue","1",943.5,"blueRED",280.346,324362.5,1223.846,1,28.446,231.246,434.029,202.829,405.646,608.446
"pro","stp",2,"197449","pro_stp_run2_197449","WHITE","i","mi","blue",3600,328219,43073,48,"blue","blue","blue","blue","1",791,"blueWHITE",285.146,329010,1076.146,1,28.446,231.246,434.029,202.829,405.646,608.446
"pro","stp",2,"197449","pro_stp_run2_197449","PURPLE","i","mi","red",2400,334202,43073,49,"red","red","red","red","1",1169,"redPURPLE",291.129,335371,1460.129,1,28.446,231.246,434.029,202.829,405.646,608.446
"pro","stp",2,"197449","pro_stp_run2_197449","BLACK","c","pc50","black",1200,339019,43073,50,"black","black","black","black","1",850.5,"blackBLACK",295.946,339869.5,1146.446,1,28.446,231.246,434.029,202.829,405.646,608.446
"pro","stp",2,"197449","pro_stp_run2_197449","PURPLE","i","mi","blue",3600,342602,43073,51,"blue","blue","blue","blue","1",1035,"bluePURPLE",299.529,343637,1334.529,1,28.446,231.246,434.029,202.829,405.646,608.446
"pro","stp",2,"197449","pro_stp_run2_197449","GREEN","i","pc50","black",3600,348619,43073,52,"black","black","black","black","1",1812,"blackGREEN",305.546,350431,2117.546,1,28.446,231.246,434.029,202.829,405.646,608.446
"pro","stp",2,"197449","pro_stp_run2_197449","WHITE","i","mi","blue",1200,354619,43073,53,"blue","blue","blue","blue","1",1172.5,"blueWHITE",311.546,355791.5,1484.046,1,28.446,231.246,434.029,202.829,405.646,608.446
"pro","stp",2,"197449","pro_stp_run2_197449","WHITE","c","mi","white",2400,358219,43073,54,"white","white","white","white","1",1242,"whiteWHITE",315.146,359461,1557.146,1,28.446,231.246,434.029,202.829,405.646,608.446
"pro","stp",2,"197449","pro_stp_run2_197449","BLUE","i","mi","red",2400,363019,43073,55,"red","red","red","red","1",1082.5,"redBLUE",319.946,364101.5,1402.446,1,28.446,231.246,434.029,202.829,405.646,608.446
"pro","stp",2,"197449","pro_stp_run2_197449","PURPLE","i","mi","white",3600,367819,43073,56,"white","white","white","white","1",1040,"whitePURPLE",324.746,368859,1364.746,1,28.446,231.246,434.029,202.829,405.646,608.446
"pro","stp",2,"197449","pro_stp_run2_197449","BLUE","i","mi","purple",3600,373819,43073,57,"purple","purple","purple","purple","1",927,"purpleBLUE",330.746,374746,1257.746,1,28.446,231.246,434.029,202.829,405.646,608.446
"pro","stp",2,"197449","pro_stp_run2_197449","PINK","i","pc50","yellow",2400,379802,43073,58,"yellow","yellow","yellow","yellow","1",1227.5,"yellowPINK",336.729,381029.5,1564.229,1,28.446,231.246,434.029,202.829,405.646,608.446
"pro","stp",2,"197449","pro_stp_run2_197449","WHITE","i","mi","purple",1200,384619,43073,59,"purple","purple","purple","purple","1",1071,"purpleWHITE",341.546,385690,1412.546,1,28.446,231.246,434.029,202.829,405.646,608.446
"pro","stp",2,"197449","pro_stp_run2_197449","BLUE","i","mi","red",1200,388202,43073,60,"red","red","red","red","1",957.5,"redBLUE",345.129,389159.5,1302.629,1,28.446,231.246,434.029,202.829,405.646,608.446
"pro","stp",2,"197449","pro_stp_run2_197449","RED","i","mi","white",1200,391819,43073,61,"white","white","white","white","1",1463.5,"whiteRED",348.746,393282.5,1812.246,1,28.446,231.246,434.029,202.829,405.646,608.446
"pro","stp",2,"197449","pro_stp_run2_197449","GREEN","c","pc50","green",3600,395402,43073,62,"green","green","green","green","1",712.5,"greenGREEN",352.329,396114.5,1064.829,1,28.446,231.246,434.029,202.829,405.646,608.446
"pro","stp",2,"197449","pro_stp_run2_197449","BLACK","i","pc50","yellow",2400,401419,43073,63,"yellow","yellow","yellow","yellow","1",942,"yellowBLACK",358.346,402361,1300.346,1,28.446,231.246,434.029,202.829,405.646,608.446
"pro","stp",2,"197449","pro_stp_run2_197449","PINK","c","pc50","pink",1200,406202,43073,64,"pink","pink","pink","pink","1",1862,"pinkPINK",363.129,408064,2225.129,1,28.446,231.246,434.029,202.829,405.646,608.446
"pro","stp",2,"197449","pro_stp_run2_197449","PURPLE","c","mi","purple",1200,409819,43073,65,"purple","purple","purple","purple","1",883.5,"purplePURPLE",366.746,410702.5,1250.246,1,28.446,231.246,434.029,202.829,405.646,608.446
"pro","stp",2,"197449","pro_stp_run2_197449","WHITE","i","mi","red",2400,413402,43073,66,"red","red","red","red","1",1031,"redWHITE",370.329,414433,1401.329,1,28.446,231.246,434.029,202.829,405.646,608.446
"pro","stp",2,"197449","pro_stp_run2_197449","RED","i","mi","white",3600,418219,43073,67,"white","white","white","white","1",859.5,"whiteRED",375.146,419078.5,1234.646,1,28.446,231.246,434.029,202.829,405.646,608.446
"pro","stp",2,"197449","pro_stp_run2_197449","WHITE","c","mi","white",1200,424202,43073,68,"white","white","white","white","1",762,"whiteWHITE",381.129,424964,1143.129,1,28.446,231.246,434.029,202.829,405.646,608.446
"pro","stp",2,"197449","pro_stp_run2_197449","BLUE","c","mi","blue",2400,427819,43073,69,"blue","blue","blue","blue","1",889,"blueBLUE",384.746,428708,1273.746,1,28.446,231.246,434.029,202.829,405.646,608.446
"pro","stp",2,"197449","pro_stp_run2_197449","BLACK","c","pc50","black",2400,432602,43073,70,"black","black","black","black","1",751.5,"blackBLACK",389.529,433353.5,1141.029,1,28.446,231.246,434.029,202.829,405.646,608.446
"pro","stp",2,"197449","pro_stp_run2_197449","PURPLE","i","mi","white",3600,437419,43073,71,"no-response","no-response","white","","no.response",0,"whitePURPLE",394.346,437906,881.346,0,28.446,231.246,434.029,202.829,405.646,608.446
"pro","stp",2,"197449","pro_stp_run2_197449","PURPLE","i","mi","red",3600,443419,43073,72,"red","red","red","red","1",1059,"redPURPLE",400.346,444478,1459.346,1,28.446,231.246,434.029,202.829,405.646,608.446
"pro","stp",2,"197449","pro_stp_run2_197449","PURPLE","i","mi","red",3600,479419,43073,73,"red","red","red","red","1",914.5,"redPURPLE",436.346,480333.5,1350.846,1,28.446,231.246,434.029,202.829,405.646,608.446
"pro","stp",2,"197449","pro_stp_run2_197449","BLUE","i","mi","purple",2400,485402,43073,74,"purple","purple","purple","purple","1",744,"purpleBLUE",442.329,486146,1186.329,1,28.446,231.246,434.029,202.829,405.646,608.446
"pro","stp",2,"197449","pro_stp_run2_197449","BLACK","c","pc50","black",1200,490219,43073,75,"black","black","black","black","1",752,"blackBLACK",447.146,490971,1199.146,1,28.446,231.246,434.029,202.829,405.646,608.446
"pro","stp",2,"197449","pro_stp_run2_197449","BLACK","i","pc50","pink",2400,493802,43073,76,"pink","pink","pink","pink","1",619,"pinkBLACK",450.729,494421,1069.729,1,28.446,231.246,434.029,202.829,405.646,608.446
"pro","stp",2,"197449","pro_stp_run2_197449","WHITE","c","mi","white",3600,498619,43073,77,"white","white","white","white","1",914.5,"whiteWHITE",455.546,499533.5,1370.046,1,28.446,231.246,434.029,202.829,405.646,608.446
"pro","stp",2,"197449","pro_stp_run2_197449","PINK","c","pc50","pink",3600,504602,43073,78,"pink","pink","pink","pink","1",828.5,"pinkPINK",461.529,505430.5,1290.029,1,28.446,231.246,434.029,202.829,405.646,608.446
"pro","stp",2,"197449","pro_stp_run2_197449","RED","c","mi","red",2400,510602,43073,79,"red","red","red","red","1",1102,"redRED",467.529,511704,1569.529,1,28.446,231.246,434.029,202.829,405.646,608.446
"pro","stp",2,"197449","pro_stp_run2_197449","WHITE","c","mi","white",1200,515419,43073,80,"white","white","white","white","1",666.5,"whiteWHITE",472.346,516085.5,1138.846,1,28.446,231.246,434.029,202.829,405.646,608.446
"pro","stp",2,"197449","pro_stp_run2_197449","PINK","c","pc50","pink",1200,519019,43073,81,"pink","pink","pink","pink","1",746.5,"pinkPINK",475.946,519765.5,1222.446,1,28.446,231.246,434.029,202.829,405.646,608.446
"pro","stp",2,"197449","pro_stp_run2_197449","BLUE","i","mi","purple",3600,522602,43073,82,"blue","blue","purple","blue","0",904,"purpleBLUE",479.529,523506,1383.529,0,28.446,231.246,434.029,202.829,405.646,608.446
"pro","stp",2,"197449","pro_stp_run2_197449","BLACK","c","pc50","black",2400,528602,43073,83,"black","black","black","black","1",782,"blackBLACK",485.529,529384,1267.529,1,28.446,231.246,434.029,202.829,405.646,608.446
"pro","stp",2,"197449","pro_stp_run2_197449","PURPLE","i","mi","white",1200,533419,43073,84,"white","white","white","white","1",707,"whitePURPLE",490.346,534126,1197.346,1,28.446,231.246,434.029,202.829,405.646,608.446
"pro","stp",2,"197449","pro_stp_run2_197449","BLUE","i","mi","red",2400,537019,43073,85,"red","red","red","red","1",1588,"redBLUE",493.946,538607,2081.946,1,28.446,231.246,434.029,202.829,405.646,608.446
"pro","stp",2,"197449","pro_stp_run2_197449","RED","i","mi","purple",1200,541819,43073,86,"purple","purple","purple","purple","1",1315,"purpleRED",498.746,543134,1813.746,1,28.446,231.246,434.029,202.829,405.646,608.446
"pro","stp",2,"197449","pro_stp_run2_197449","RED","c","mi","red",3600,545419,43073,87,"red","red","red","red","1",1501.5,"redRED",502.346,546920.5,2003.846,1,28.446,231.246,434.029,202.829,405.646,608.446
"pro","stp",2,"197449","pro_stp_run2_197449","WHITE","i","mi","blue",3600,551419,43073,88,"blue","blue","blue","blue","1",1377.5,"blueWHITE",508.346,552796.5,1885.846,1,28.446,231.246,434.029,202.829,405.646,608.446
"pro","stp",2,"197449","pro_stp_run2_197449","PURPLE","i","mi","red",1200,557402,43073,89,"red","red","red","red","1",1509,"redPURPLE",514.329,558911,2023.329,1,28.446,231.246,434.029,202.829,405.646,608.446
"pro","stp",2,"197449","pro_stp_run2_197449","GREEN","i","pc50","black",3600,561019,43073,90,"black","black","black","black","1",1041,"blackGREEN",517.946,562060,1558.946,1,28.446,231.246,434.029,202.829,405.646,608.446
"pro","stp",2,"197449","pro_stp_run2_197449","PURPLE","c","mi","purple",1200,567002,43073,91,"purple","purple","purple","purple","1",1438.5,"purplePURPLE",523.929,568440.5,1962.429,1,28.446,231.246,434.029,202.829,405.646,608.446
"pro","stp",2,"197449","pro_stp_run2_197449","BLUE","i","mi","red",2400,570619,43073,92,"blue","blue","red","blue","0",1044,"redBLUE",527.546,571663,1571.546,0,28.446,231.246,434.029,202.829,405.646,608.446
"pro","stp",2,"197449","pro_stp_run2_197449","WHITE","i","mi","red",2400,575402,43073,93,"red","red","red","red","1",898,"redWHITE",532.329,576300,1430.329,1,28.446,231.246,434.029,202.829,405.646,608.446
"pro","stp",2,"197449","pro_stp_run2_197449","PINK","i","pc50","yellow",2400,580219,43073,94,"pink","pink","yellow","pink","0",842,"yellowPINK",537.146,581061,1379.146,0,28.446,231.246,434.029,202.829,405.646,608.446
"pro","stp",2,"197449","pro_stp_run2_197449","PURPLE","i","mi","white",3600,585019,43073,95,"white","white","white","white","1",1199,"whitePURPLE",541.946,586218,1740.946,1,28.446,231.246,434.029,202.829,405.646,608.446
"pro","stp",2,"197449","pro_stp_run2_197449","PURPLE","i","mi","blue",1200,591002,43073,96,"blue","blue","blue","blue","1",1134,"bluePURPLE",547.929,592136,1681.929,1,28.446,231.246,434.029,202.829,405.646,608.446
"pro","stp",2,"197449","pro_stp_run2_197449","WHITE","i","mi","blue",3600,594619,43073,97,"blue","blue","blue","blue","1",1062,"blueWHITE",551.546,595681,1613.546,1,28.446,231.246,434.029,202.829,405.646,608.446
"pro","stp",2,"197449","pro_stp_run2_197449","GREEN","c","pc50","green",3600,600602,43073,98,"green","green","green","green","1",1006.5,"greenGREEN",557.529,601608.5,1564.029,1,28.446,231.246,434.029,202.829,405.646,608.446
"pro","stp",2,"197449","pro_stp_run2_197449","RED","i","mi","white",1200,606619,43073,99,"white","white","white","white","1",1541.5,"whiteRED",563.546,608160.5,2105.046,1,28.446,231.246,434.029,202.829,405.646,608.446
"pro","stp",2,"197449","pro_stp_run2_197449","WHITE","i","mi","purple",2400,610202,43073,100,"purple","purple","purple","purple","1",1146,"purpleWHITE",567.129,611348,1713.129,1,28.446,231.246,434.029,202.829,405.646,608.446
"pro","stp",2,"197449","pro_stp_run2_197449","YELLOW","c","pc50","yellow",1200,615019,43073,101,"yellow","yellow","yellow","yellow","1",2011,"yellowYELLOW",571.946,617030,2582.946,1,28.446,231.246,434.029,202.829,405.646,608.446
"pro","stp",2,"197449","pro_stp_run2_197449","BLUE","c","mi","blue",1200,618602,43073,102,"blue","blue","blue","blue","1",920,"blueBLUE",575.529,619522,1495.529,1,28.446,231.246,434.029,202.829,405.646,608.446
"pro","stp",2,"197449","pro_stp_run2_197449","RED","i","mi","blue",2400,622219,43073,103,"blue","blue","blue","blue","1",774.5,"blueRED",579.146,622993.5,1353.646,1,28.446,231.246,434.029,202.829,405.646,608.446
"pro","stp",2,"197449","pro_stp_run2_197449","RED","i","mi","white",3600,627002,43073,104,"white","white","white","white","1",2328,"whiteRED",583.929,629330,2911.929,1,28.446,231.246,434.029,202.829,405.646,608.446
"pro","stp",2,"197449","pro_stp_run2_197449","BLUE","i","mi","white",1200,633019,43073,105,"white","white","white","white","1",743.5,"whiteBLUE",589.946,633762.5,1333.446,1,28.446,231.246,434.029,202.829,405.646,608.446
"pro","stp",2,"197449","pro_stp_run2_197449","YELLOW","i","pc50","green",2400,636602,43073,106,"no-response","no-response","green","","no.response",0,"greenYELLOW",593.529,637049.5,1041.029,0,28.446,231.246,434.029,202.829,405.646,608.446
"pro","stp",2,"197449","pro_stp_run2_197449","PINK","i","pc50","green",3600,641419,43073,107,"green","green","green","green","1",1302.5,"greenPINK",598.346,642721.5,1900.846,1,28.446,231.246,434.029,202.829,405.646,608.446
"pro","stp",2,"197449","pro_stp_run2_197449","BLACK","i","pc50","yellow",2400,647419,43073,108,"no-response","no-response","yellow","","no.response",0,"yellowBLACK",604.346,649114,2299.346,0,28.446,231.246,434.029,202.829,405.646,608.446
"rea","stp",1,"197449","rea_stp_run1_197449","BLUE","i","mi","purple",1200,92456,61719,1,"purple","purple","purple","purple","1",839,"purpleBLUE",30.737,93295,869.737,1,28.437,254.037,471.237,225.654,442.837,666.037
"rea","stp",1,"197449","rea_stp_run1_197449","WHITE","c","mi","white",1200,96039,61719,2,"white","white","white","white","1",695.5,"whiteWHITE",34.32,96734.5,729.82,1,28.437,254.037,471.237,225.654,442.837,666.037
"rea","stp",1,"197449","rea_stp_run1_197449","PINK","c","pc50","pink",3600,99656,61719,3,"pink","pink","pink","pink","1",624,"pinkPINK",37.937,100280,661.937,1,28.437,254.037,471.237,225.654,442.837,666.037
"rea","stp",1,"197449","rea_stp_run1_197449","YELLOW","i","pc50","pink",1200,105639,61719,4,"pink","pink","pink","pink","1",889.5,"pinkYELLOW",43.92,106528.5,933.42,1,28.437,254.037,471.237,225.654,442.837,666.037
"rea","stp",1,"197449","rea_stp_run1_197449","RED","i","mi","white",2400,109256,61719,5,"white","white","white","white","1",853,"whiteRED",47.537,110109,900.537,1,28.437,254.037,471.237,225.654,442.837,666.037
"rea","stp",1,"197449","rea_stp_run1_197449","GREEN","c","pc50","green",3600,114039,61719,6,"green","green","green","green","1",656,"greenGREEN",52.32,114695,708.32,1,28.437,254.037,471.237,225.654,442.837,666.037
"rea","stp",1,"197449","rea_stp_run1_197449","RED","c","mc","red",3600,120056,61719,7,"red","red","red","red","1",814,"redRED",58.337,120870,872.337,1,28.437,254.037,471.237,225.654,442.837,666.037
"rea","stp",1,"197449","rea_stp_run1_197449","PURPLE","c","mi","purple",2400,126056,61719,8,"purple","purple","purple","purple","1",946.5,"purplePURPLE",64.337,127002.5,1010.837,1,28.437,254.037,471.237,225.654,442.837,666.037
"rea","stp",1,"197449","rea_stp_run1_197449","GREEN","i","pc50","pink",3600,130839,61719,9,"pink","pink","pink","pink","1",963.5,"pinkGREEN",69.12,131802.5,1032.62,1,28.437,254.037,471.237,225.654,442.837,666.037
"rea","stp",1,"197449","rea_stp_run1_197449","BLUE","c","mc","blue",2400,136856,61719,10,"blue","blue","blue","blue","1",996,"blueBLUE",75.137,137852,1071.137,1,28.437,254.037,471.237,225.654,442.837,666.037
"rea","stp",1,"197449","rea_stp_run1_197449","RED","c","mc","red",1200,141639,61719,11,"red","red","red","red","1",719,"redRED",79.92,142358,798.92,1,28.437,254.037,471.237,225.654,442.837,666.037
"rea","stp",1,"197449","rea_stp_run1_197449","BLUE","c","mc","blue",2400,145256,61719,12,"blue","blue","blue","blue","1",919.5,"blueBLUE",83.537,146175.5,1003.037,1,28.437,254.037,471.237,225.654,442.837,666.037
"rea","stp",1,"197449","rea_stp_run1_197449","BLUE","c","mc","blue",2400,150039,61719,13,"blue","blue","blue","blue","1",907,"blueBLUE",88.32,150946,995.32,1,28.437,254.037,471.237,225.654,442.837,666.037
"rea","stp",1,"197449","rea_stp_run1_197449","WHITE","i","mi","purple",3600,154856,61719,14,"purple","purple","purple","purple","1",843,"purpleWHITE",93.137,155699,936.137,1,28.437,254.037,471.237,225.654,442.837,666.037
"rea","stp",1,"197449","rea_stp_run1_197449","WHITE","c","mi","white",1200,160856,61719,15,"white","white","white","white","1",1265.5,"whiteWHITE",99.137,162121.5,1364.637,1,28.437,254.037,471.237,225.654,442.837,666.037
"rea","stp",1,"197449","rea_stp_run1_197449","RED","c","mc","red",1200,164456,61719,16,"red","red","red","red","1",1102,"redRED",102.737,165558,1204.737,1,28.437,254.037,471.237,225.654,442.837,666.037
"rea","stp",1,"197449","rea_stp_run1_197449","BLUE","c","mc","blue",2400,168039,61719,17,"blue","blue","blue","blue","1",1037.5,"blueBLUE",106.32,169076.5,1143.82,1,28.437,254.037,471.237,225.654,442.837,666.037
"rea","stp",1,"197449","rea_stp_run1_197449","RED","i","mi","purple",1200,172856,61719,18,"purple","purple","purple","purple","1",1081,"purpleRED",111.137,173937,1192.137,1,28.437,254.037,471.237,225.654,442.837,666.037
"rea","stp",1,"197449","rea_stp_run1_197449","YELLOW","c","pc50","yellow",1200,176439,61719,19,"yellow","yellow","yellow","yellow","1",1831.5,"yellowYELLOW",114.72,178270.5,1946.22,1,28.437,254.037,471.237,225.654,442.837,666.037
"rea","stp",1,"197449","rea_stp_run1_197449","BLUE","i","mi","purple",2400,180056,61719,20,"purple","purple","purple","purple","1",2470.5,"purpleBLUE",118.337,182526.5,2588.837,1,28.437,254.037,471.237,225.654,442.837,666.037
"rea","stp",1,"197449","rea_stp_run1_197449","RED","c","mc","red",3600,184839,61719,21,"red","red","red","red","1",655,"redRED",123.12,185494,778.12,1,28.437,254.037,471.237,225.654,442.837,666.037
"rea","stp",1,"197449","rea_stp_run1_197449","BLACK","c","pc50","black",2400,190856,61719,22,"black","black","black","black","1",706.5,"blackBLACK",129.137,191562.5,835.637,1,28.437,254.037,471.237,225.654,442.837,666.037
"rea","stp",1,"197449","rea_stp_run1_197449","PINK","i","pc50","black",3600,195656,61719,23,"black","black","black","black","1",1266.5,"blackPINK",133.937,196922.5,1400.437,1,28.437,254.037,471.237,225.654,442.837,666.037
